File: standardized_raw_training.csv
Index,Cement (component 1)(kg in a m^3 mixture),Blast Furnace Slag (component 2)(kg in a m^3 mixture),Fly Ash (component 3)(kg in a m^3 mixture),Water  (component 4)(kg in a m^3 mixture),Superplasticizer (component 5)(kg in a m^3 mixture),Coarse Aggregate  (component 6)(kg in a m^3 mixture),Fine Aggregate (component 7)(kg in a m^3 mixture),Age (day),"Concrete compressive strength(MPa, megapascals) "
1,2.47791,-0.856888,-0.847144,-0.916764,-0.620448,0.863154,-1.21767,-0.279733,79.99
3,0.491425,0.795526,-0.847144,2.17546,-1.03914,-0.526517,-2.24092,3.55307,40.27
5,-0.790459,0.678408,-0.847144,0.488793,-1.03914,0.0705267,0.647884,4.97849,44.3
7,0.946164,0.244722,-0.847144,2.17546,-1.03914,-0.526517,-2.24092,5.05768,43.7
9,-0.145209,0.465044,-0.847144,2.17546,-1.03914,-0.526517,-1.29254,-0.279733,45.85
11,-0.790459,0.678408,-0.847144,0.488793,-1.03914,0.0705267,0.647884,0.702224,38.07
13,1.4009,-0.306083,-0.847144,2.17546,-1.03914,-0.526517,-2.24092,3.55307,43.01
15,0.218582,0.0243998,-0.847144,2.17546,-1.03914,-0.526517,-1.29254,-0.279733,47.81
17,-1.35529,1.57129,-0.847144,0.488793,-1.03914,0.953226,0.415782,0.702224,39.36
19,0.946164,0.244722,-0.847144,2.17546,-1.03914,-0.526517,-2.24092,0.702224,40.56
21,1.4009,-0.306083,-0.847144,2.17546,-1.03914,-0.526517,-2.24092,2.12764,41.84
23,-1.35529,1.57129,-0.847144,0.488793,-1.03914,0.953226,0.415782,-0.675683,8.06
25,0.946164,-0.856888,-0.847144,2.17546,-1.03914,-0.526517,-1.29254,5.05768,52.52
27,0.946164,0.244722,-0.847144,2.17546,-1.03914,-0.526517,-2.24092,3.55307,41.15
29,1.4009,-0.306083,-0.847144,2.17546,-1.03914,-0.526517,-2.24092,-0.279733,37.43
31,0.218582,0.0243998,-0.847144,2.17546,-1.03914,-0.526517,-1.29254,5.05768,55.26
33,-0.790459,0.678408,-0.847144,0.488793,-1.03914,0.0705267,0.647884,2.12764,41.72
35,-0.87279,1.34633,-0.847144,2.17546,-1.03914,-0.526517,-1.29254,5.05768,53.69
37,-0.418052,1.89714,-0.847144,2.17546,-1.03914,-0.526517,-2.24092,-0.279733,30.08
39,1.85564,-0.856888,-0.847144,2.17546,-1.03914,-0.526517,-2.24092,0.702224,42.23
41,0.582373,-0.416244,-0.847144,2.17546,-1.03914,-0.526517,-1.29254,0.702224,50.46
43,-0.418052,1.89714,-0.847144,2.17546,-1.03914,-0.526517,-2.24092,5.05768,39
45,1.4009,-0.306083,-0.847144,2.17546,-1.03914,-0.526517,-2.24092,0.702224,41.54
47,0.649387,-0.856888,-0.847144,0.488793,-1.03914,0.953226,0.415782,-0.675683,15.05
49,-0.418052,1.89714,-0.847144,2.17546,-1.03914,-0.526517,-2.24092,-0.612331,26.26
51,0.491425,0.795526,-0.847144,2.17546,-1.03914,-0.526517,-2.24092,2.12764,39.78
53,-0.418052,1.89714,-0.847144,2.17546,-1.03914,-0.526517,-2.24092,0.702224,33.12
55,-1.35529,1.57129,-0.847144,0.488793,-1.03914,0.953226,0.415782,-0.612331,14.59
57,1.85564,-0.856888,-0.847144,2.17546,-1.03914,-0.526517,-2.24092,5.05768,41.93
59,0.218582,0.0243998,-0.847144,2.17546,-1.03914,-0.526517,-1.29254,2.12764,50.95
61,0.218582,0.0243998,-0.847144,2.17546,-1.03914,-0.526517,-1.29254,3.55307,54.38
63,0.276023,-0.856888,-0.847144,0.488793,-1.03914,-0.0246915,0.961097,-0.675683,9.87
65,-0.145209,0.465044,-0.847144,2.17546,-1.03914,-0.526517,-1.29254,2.12764,48.7
67,-1.35529,1.57129,-0.847144,0.488793,-1.03914,0.953226,0.415782,4.97849,44.7
69,-0.87279,1.34633,-0.847144,2.17546,-1.03914,-0.526517,-1.29254,-0.279733,40.86
71,0.888723,1.33705,-0.847144,-0.537264,0.652383,-0.602435,-0.210645,-0.675683,34.4
73,1.37697,0.375755,-0.847144,-1.31501,1.72424,-1.55462,1.41657,-0.675683,33.4
75,0.898297,0.230807,-0.847144,-2.57532,2.87984,-1.55462,2.73306,-0.675683,29
77,1.7982,0.50215,-0.847144,-2.05058,4.35364,-1.55462,0.835063,-0.675683,40.2
79,1.0285,0.269073,-0.847144,-1.10886,0.987339,-1.55462,1.89824,-0.675683,28.1
81,1.37697,0.375755,-0.847144,-1.31501,1.72424,-1.55462,1.41657,-0.675683,33.4
83,1.15486,0.241243,-0.847144,-1.6008,0.870104,-0.336081,0.979815,-0.675683,41.1
85,0.407179,2.42243,-0.847144,0.104607,0.685878,-0.388837,-1.41858,-0.675683,28.3
87,0.779586,1.33474,-0.847144,-0.780894,0.9036,-0.363102,-0.221876,-0.675683,35.3
89,0.779586,1.33474,-0.847144,-0.780894,0.9036,-0.363102,-0.221876,-0.675683,35.3
91,1.04094,1.33474,-0.847144,-1.67108,2.64537,-0.363102,-0.221876,-0.675683,40.6
93,0.543122,1.33474,-0.847144,-0.312375,0.551896,-0.363102,-0.221876,-0.675683,24.1
95,0.307615,2.18355,-0.847144,-0.284264,0.401166,0.951939,-2.0188,-0.612331,42.8
97,1.37697,0.375755,-0.847144,-1.41339,2.07594,-0.475048,0.37585,-0.612331,46.8
99,1.85564,0.520704,-0.847144,-0.02189303,0.45141,-1.55462,0.0988246,-0.612331,55.6
101,1.37697,0.375755,-0.847144,-1.31501,1.72424,-1.55462,1.41657,-0.612331,49.2
103,2.39463,-0.856888,-0.847144,-1.86317,3.68373,-1.55462,1.49893,-0.612331,46.9
105,0.360269,1.60724,-0.847144,-1.21193,1.35579,-1.55462,1.33296,-0.612331,33.4
107,0.779586,1.33474,-0.847144,-0.780894,0.9036,-0.363102,-0.221876,-0.612331,55.9
109,0.941377,0.896411,-0.847144,-1.29626,1.62375,2.07654,-2.10365,-0.612331,47.1
111,0.0491322,1.47273,-0.847144,-1.7273,0.836609,0.407651,0.37585,-0.612331,38
113,1.511,1.19558,-0.847144,0.207681,0.819861,-1.13257,-0.819602,-0.612331,56.1
115,0.779586,1.33474,-0.847144,-0.780894,0.9036,-0.363102,-0.221876,-0.612331,22.9
117,0.888723,1.33705,-0.847144,-0.537264,0.652383,-0.602435,-0.210645,-0.279733,61.09
119,1.37697,0.375755,-0.847144,-1.31501,1.72424,-1.55462,1.41657,-0.279733,60.29
121,0.898297,0.230807,-0.847144,-2.57532,2.87984,-1.55462,2.73306,-0.279733,56.7
123,1.7982,0.50215,-0.847144,-2.05058,4.35364,-1.55462,0.835063,-0.279733,66.9
125,1.0285,0.269073,-0.847144,-1.10886,0.987339,-1.55462,1.89824,-0.279733,50.7
127,1.37697,0.375755,-0.847144,-1.31501,1.72424,-1.55462,1.41657,-0.279733,60.29
129,1.15486,0.241243,-0.847144,-1.6008,0.870104,-0.336081,0.979815,-0.279733,68.5
131,0.407179,2.42243,-0.847144,0.104607,0.685878,-0.388837,-1.41858,-0.279733,74.7
133,0.779586,1.33474,-0.847144,-0.780894,0.9036,-0.363102,-0.221876,-0.279733,71.3
135,0.779586,1.33474,-0.847144,-0.780894,0.9036,-0.363102,-0.221876,-0.279733,71.3
137,1.04094,1.33474,-0.847144,-1.67108,2.64537,-0.363102,-0.221876,-0.279733,74.5
139,0.543122,1.33474,-0.847144,-0.312375,0.551896,-0.363102,-0.221876,-0.279733,49.9
141,0.307615,2.18355,-0.847144,-0.284264,0.401166,0.951939,-2.0188,0.163731,64.9
143,1.37697,0.375755,-0.847144,-1.41339,2.07594,-0.475048,0.37585,0.163731,64.9
145,1.85564,0.520704,-0.847144,-0.02189303,0.45141,-1.55462,0.0988246,0.163731,72.3
147,1.37697,0.375755,-0.847144,-1.31501,1.72424,-1.55462,1.41657,0.163731,64.3
149,2.39463,-0.856888,-0.847144,-1.86317,3.68373,-1.55462,1.49893,0.163731,58.8
151,0.360269,1.60724,-0.847144,-1.21193,1.35579,-1.55462,1.33296,0.163731,66.1
153,0.779586,1.33474,-0.847144,-0.780894,0.9036,-0.363102,-0.221876,0.163731,77.3
155,0.941377,0.896411,-0.847144,-1.29626,1.62375,2.07654,-2.10365,0.163731,54.9
157,0.0491322,1.47273,-0.847144,-1.7273,0.836609,0.407651,0.37585,0.163731,72.99
159,1.511,1.19558,-0.847144,0.207681,0.819861,-1.13257,-0.819602,0.163731,71.7
161,0.779586,1.33474,-0.847144,-0.780894,0.9036,-0.363102,-0.221876,0.163731,77.3
163,0.888723,1.33705,-0.847144,-0.537264,0.652383,-0.602435,-0.210645,0.718062,64.9
165,1.37697,0.375755,-0.847144,-1.31501,1.72424,-1.55462,1.41657,0.718062,65.2
167,0.898297,0.230807,-0.847144,-2.57532,2.87984,-1.55462,2.73306,0.718062,62.5
169,1.7982,0.50215,-0.847144,-2.05058,4.35364,-1.55462,0.835063,0.718062,70.7
171,1.0285,0.269073,-0.847144,-1.10886,0.987339,-1.55462,1.89824,0.718062,57.6
173,1.37697,0.375755,-0.847144,-1.31501,1.72424,-1.55462,1.41657,0.718062,65.2
175,1.15486,0.241243,-0.847144,-1.6008,0.870104,-0.336081,0.979815,0.718062,75.5
177,0.941377,0.896411,-0.847144,-1.29626,1.62375,2.07654,-2.10365,0.718062,56.5
179,0.0491322,1.47273,-0.847144,-1.7273,0.836609,0.407651,0.37585,0.718062,76.8
181,1.511,1.19558,-0.847144,0.207681,0.819861,-1.13257,-0.819602,0.718062,73.3
183,0.779586,1.33474,-0.847144,-0.780894,0.9036,-0.363102,-0.221876,0.718062,79.3
185,-0.562611,-0.856888,0.664598,0.362293,-0.285493,-0.0748741,1.20693,-0.675683,11.58
187,-0.562611,-0.856888,0.664598,0.362293,-0.285493,-0.0748741,1.20693,-0.279733,24.89
189,-0.562611,-0.856888,0.664598,0.362293,-0.285493,-0.0748741,1.20693,0.860604,40.71
191,-0.453474,-0.856888,0.631768,0.765219,-0.268745,-0.333507,0.981063,-0.501465,22.14
193,-0.453474,-0.856888,0.631768,0.765219,-0.268745,-0.333507,0.981063,0.163731,27.66
195,-0.827795,-0.856888,0.724005,-0.748098,0.216941,0.430812,1.65117,-0.675683,12.45
197,-0.827795,-0.856888,0.724005,-0.748098,0.216941,0.430812,1.65117,-0.279733,25.72
199,-0.827795,-0.856888,0.724005,-0.748098,0.216941,0.430812,1.65117,0.860604,37.34
201,-0.866089,-0.856888,1.11327,-0.9120792,0.267184,1.50652,0.379594,-0.501465,21.06
203,-0.866089,-0.856888,1.11327,-0.9120792,0.267184,1.50652,0.379594,0.163731,35.34
205,-0.661217,-0.856888,1.05387,-0.0593746,-0.0845194,1.08962,0.0713717,-0.675683,12.47
207,-0.661217,-0.856888,1.05387,-0.0593746,-0.0845194,1.08962,0.0713717,-0.279733,24.9
209,-0.661217,-0.856888,1.05387,-0.0593746,-0.0845194,1.08962,0.0713717,0.860604,39.61
211,-0.489853,-0.856888,1.00228,0.652774,-0.268745,0.726761,-0.186936,-0.501465,20.08
213,-0.489853,-0.856888,1.00228,0.652774,-0.268745,0.726761,-0.186936,0.163731,31.54
215,-0.869918,-0.856888,1.11015,-0.92145,0.618887,1.48207,0.362124,-0.675683,9.45
217,-0.869918,-0.856888,1.11015,-0.92145,0.618887,1.48207,0.362124,-0.279733,28.47
219,-0.869918,-0.856888,1.11015,-0.92145,0.618887,1.48207,0.362124,0.860604,40.39
221,-1.1016,-0.856888,1.70578,-0.237412,-0.285493,1.10249,0.0813546,-0.501465,25.48
223,-1.1016,-0.856888,1.70578,-0.237412,-0.285493,1.10249,0.0813546,0.163731,28.63
225,-1.08341,-0.368701,1.71359,-2.80021,-0.0845194,1.10377,0.0813546,-0.675683,7.75
227,-1.08341,-0.368701,1.71359,-2.80021,-0.0845194,1.10377,0.0813546,-0.279733,24.24
229,-1.08341,-0.368701,1.71359,-2.80021,-0.0845194,1.10377,0.0813546,0.860604,39.23
231,-0.6459,0.280669,-0.464128,0.006218112,0.116454,1.19513,0.147491,-0.501465,30.39
233,-0.6459,0.280669,-0.464128,0.006218112,0.116454,1.19513,0.147491,0.163731,50.77
235,-0.644942,0.280669,-0.464128,0.006218112,0.0829584,1.1977,0.148739,-0.675683,13.18
237,-0.644942,0.280669,-0.464128,0.006218112,0.0829584,1.1977,0.148739,-0.279733,40.23
239,-0.644942,0.280669,-0.464128,0.006218112,0.0829584,1.1977,0.148739,0.860604,49.97
241,-0.492725,-0.856888,1.00071,0.638719,-0.0175283,0.710033,-0.199414,-0.501465,22.32
243,-0.492725,-0.856888,1.00071,0.638719,-0.0175283,0.710033,-0.199414,0.163731,31.35
245,-0.412308,-0.856888,0.623952,0.240478,0.133202,-0.296192,0.916174,-0.675683,19.93
247,-0.412308,-0.856888,0.623952,0.240478,0.133202,-0.296192,0.916174,-0.279733,30.23
249,-0.412308,-0.856888,0.623952,0.240478,0.133202,-0.296192,0.916174,0.860604,44.3
251,-0.298384,-0.856888,0.648965,0.273274,-0.118015,-0.206121,1.09337,-0.501465,24.92
253,-0.298384,-0.856888,0.648965,0.273274,-0.118015,-0.206121,1.09337,0.163731,38.33
255,-0.657388,-0.856888,0.722442,-1.04326,0.417914,0.448826,1.62246,-0.675683,13.54
257,-0.657388,-0.856888,0.722442,-1.04326,0.417914,0.448826,1.62246,-0.279733,31.64
259,-0.657388,-0.856888,0.722442,-1.04326,0.417914,0.448826,1.62246,0.860604,42.92
261,-0.656431,-0.856888,0.722442,-1.03858,0.702626,0.397357,1.62496,-0.501465,25.37
263,-0.656431,-0.856888,0.722442,-1.03858,0.702626,0.397357,1.62496,0.163731,44.4
265,-0.662175,-0.856888,1.10389,-1.05732,0.267184,1.44733,0.32344,-0.675683,19.52
267,-0.662175,-0.856888,1.10389,-1.05732,0.267184,1.44733,0.32344,-0.279733,38.5
269,-0.662175,-0.856888,1.10389,-1.05732,0.267184,1.44733,0.32344,0.860604,47.82
271,-0.47262,-0.856888,1.05387,-0.354542,0.0829584,1.07418,0.0613888,-0.501465,26.77
273,-0.47262,-0.856888,1.05387,-0.354542,0.0829584,1.07418,0.0613888,0.163731,42.7
275,-0.284981,-0.856888,1.00228,0.324811,-0.0677716,0.713893,-0.198167,-0.675683,17.22
277,-0.284981,-0.856888,1.00228,0.324811,-0.0677716,0.713893,-0.198167,-0.279733,29.65
279,-0.284981,-0.856888,1.00228,0.324811,-0.0677716,0.713893,-0.198167,0.860604,43.58
281,-0.284981,-0.856888,1.00228,0.324811,0.03271508,0.713893,-0.198167,-0.501465,24.43
283,-0.284981,-0.856888,1.00228,0.324811,0.03271508,0.713893,-0.198167,0.163731,36.64
285,-0.955122,-0.856888,1.76362,-0.56069,0.233688,1.06388,0.0526537,-0.675683,13.62
287,-0.955122,-0.856888,1.76362,-0.56069,0.233688,1.06388,0.0526537,-0.279733,27.77
289,-0.955122,-0.856888,1.76362,-0.56069,0.233688,1.06388,0.0526537,0.860604,45.37
291,-0.949378,-0.332754,1.06012,-0.532579,0.334175,1.11278,0.0888417,-0.501465,21.5
293,-0.949378,-0.332754,1.06012,-0.532579,0.334175,1.11278,0.0888417,0.163731,43.5
295,-1.07479,-0.367541,1.09608,-1.09012,0.769617,1.38814,0.28226,-0.675683,7.4
297,-1.07479,-0.367541,1.09608,-1.09012,0.769617,1.38814,0.28226,-0.279733,31.12
299,-1.07479,-0.367541,1.09608,-1.09012,0.769617,1.38814,0.28226,0.860604,48.15
301,0.0883833,-0.856888,0.656782,-0.630968,0.535148,-0.150791,1.14079,-0.501465,34.67
303,0.0883833,-0.856888,0.656782,-0.630968,0.535148,-0.150791,1.14079,0.163731,45.08
305,-0.0389435,-0.856888,0.675542,-0.982357,0.937095,0.0126237,1.27306,-0.675683,23.14
307,-0.0389435,-0.856888,0.675542,-0.982357,0.937095,0.0126237,1.27306,-0.279733,48.28
309,-0.0389435,-0.856888,0.675542,-0.982357,0.937095,0.0126237,1.27306,0.860604,55.64
311,0.139123,-0.856888,0.647402,-0.471671,0.45141,-0.229282,1.06841,-0.501465,35.23
313,0.139123,-0.856888,0.647402,-0.471671,0.45141,-0.229282,1.06841,0.163731,48.72
315,-0.281152,-0.856888,0.714625,-1.66171,1.03758,0.425665,1.57505,-0.675683,21.02
317,-0.281152,-0.856888,0.714625,-1.66171,1.03758,0.425665,1.57505,-0.279733,33.94
319,-0.281152,-0.856888,0.714625,-1.66171,1.03758,0.425665,1.57505,0.860604,45.37
321,-0.307,-0.856888,0.697428,-1.09949,1.10457,0.19148,1.44028,-0.501465,28.68
323,-0.307,-0.856888,0.697428,-1.09949,1.10457,0.19148,1.44028,0.163731,42.03
325,-0.276365,-0.856888,0.697428,-1.65234,1.33904,0.19148,1.44028,-0.675683,21.78
327,-0.276365,-0.856888,0.697428,-1.65234,1.33904,0.19148,1.44028,-0.279733,50.6
329,-0.276365,-0.856888,0.697428,-1.65234,1.33904,0.19148,1.44028,0.860604,60.95
331,-0.329019,-0.856888,1.10858,-1.79289,0.970591,1.46535,0.34091,-0.501465,42.22
333,-0.329019,-0.856888,1.10858,-1.79289,0.970591,1.46535,0.34091,0.163731,60.32
335,-0.0580904,-0.856888,1.05074,-1.03389,0.618887,1.03815,0.0489101,-0.675683,23.8
337,-0.0580904,-0.856888,1.05074,-1.03389,0.618887,1.03815,0.0489101,-0.279733,51.33
339,-0.0580904,-0.856888,1.05074,-1.03389,0.618887,1.03815,0.0489101,0.860604,58.61
341,0.153483,-0.856888,0.989771,-0.31706,0.551896,0.641836,-0.250577,-0.501465,36.99
343,0.153483,-0.856888,0.989771,-0.31706,0.551896,0.641836,-0.250577,0.163731,51.96
345,-0.6459,-0.856888,1.884,-1.2541,0.669131,1.03686,0.0351837,-0.675683,17.57
347,-0.6459,-0.856888,1.884,-1.2541,0.669131,1.03686,0.0351837,-0.279733,40.15
349,-0.6459,-0.856888,1.884,-1.2541,0.669131,1.03686,0.0351837,0.860604,50.08
351,-0.647814,-0.856888,1.87618,-1.26347,0.920347,1.02142,0.0239529,-0.501465,33.7
353,-0.647814,-0.856888,1.87618,-1.26347,0.920347,1.02142,0.0239529,0.163731,51.43
355,-0.0379861,0.27719,-0.464128,-0.977672,0.836609,1.14238,0.111303,-0.675683,30.45
357,-0.0379861,0.27719,-0.464128,-0.977672,0.836609,1.14238,0.111303,-0.279733,63.14
359,-0.0379861,0.27719,-0.464128,-0.977672,0.836609,1.14238,0.111303,0.860604,66.95
361,-0.602819,-0.223752,1.08826,-1.91002,0.953843,1.32252,0.238585,-0.501465,35.96
363,-0.602819,-0.223752,1.08826,-1.91002,0.953843,1.32252,0.238585,0.163731,61.99
365,-0.634412,-0.233029,1.05856,-1.21662,0.568644,0.532464,0.0875939,-0.675683,18.02
367,-0.634412,-0.233029,1.05856,-1.21662,0.568644,0.532464,0.0875939,-0.279733,52.2
369,-0.634412,-0.233029,1.05856,-1.21662,0.568644,0.532464,0.0875939,0.860604,56.63
371,-0.596118,-0.856888,1.09295,-1.08075,0.853356,1.36112,0.266038,-0.501465,26.05
373,-0.596118,-0.856888,1.09295,-1.08075,0.853356,1.36112,0.266038,0.163731,37.27
375,0.90787,-0.856888,-0.847144,1.54765,-1.03914,0.393497,-0.139517,-0.675683,16.28
377,0.90787,-0.856888,-0.847144,1.54765,-1.03914,0.393497,-0.139517,-0.279733,31.97
379,0.90787,-0.856888,-0.847144,1.54765,-1.03914,0.393497,-0.139517,0.860604,43.06
381,1.85564,-0.856888,0.0752221,-1.8538,-0.720935,1.60946,-1.65442,-0.279733,57.23
383,2.14284,-0.856888,0.0908554,0.629348,-1.03914,0.734481,-1.79169,-0.279733,64.02
385,2.24815,-0.856888,-0.847144,-0.916764,0.334175,-2.21214,0.354636,-0.279733,41.37
387,2.36303,-0.856888,-0.847144,0.160829,0.116454,-0.680925,-0.668611,-0.279733,56.83
389,0.994031,-0.856888,1.27899,-1.10417,2.31041,-0.89967,-0.0696368,-0.279733,55.55
391,1.61726,-0.277093,-0.847144,0.863608,-0.536709,1.94916,-2.00133,-0.279733,39.38
393,0.496212,-0.65396,1.70109,-0.682505,1.95871,0.296992,-1.51716,-0.279733,47.28
395,1.1855,-0.856888,-0.847144,-0.30769,-1.03914,1.89254,-0.980576,-0.279733,52.3
397,2.24815,-0.856888,-0.847144,-0.916764,0.350923,-2.21214,0.354636,-0.279733,41.37
399,-1.15999,0.627386,1.06012,0.0202737,0.03271508,-1.91619,1.31549,-0.279733,39.4
401,-0.298384,1.23037,0.638022,-1.05732,0.551896,-1.45297,0.329679,-0.279733,67.87
403,0.0366867,1.34633,-0.847144,-0.869912,0.233688,0.747348,-1.10536,-0.279733,53.58
405,-0.0590477,1.23037,1.02885,-0.916764,0.702626,-1.83899,-0.107073,-0.279733,76.24
407,-1.11213,-0.856888,1.3978,-0.832431,-1.03914,0.420518,1.58877,-0.675683,14.4
409,-0.987672,0.648259,1.00697,-0.0781153,-0.436223,0.442393,-0.334184,-0.675683,20.73
411,-1.04128,-0.699184,1.84804,-1.16039,-0.352484,0.429525,1.03347,-0.675683,21.29
413,-1.09298,0.0174422,1.76362,-0.823061,0.283932,0.442393,-0.0434317,-0.675683,15.52
415,-0.869918,-0.856888,1.11015,-0.701246,0.618887,1.36498,0.315953,-0.675683,12.55
417,-0.647814,-0.856888,1.87618,-1.04795,0.920347,0.909477,-0.0209701,-0.675683,15.61
419,-0.284981,-0.856888,1.00228,0.530959,-0.0677716,0.909477,-0.2405939,-0.675683,11.98
421,-1.11213,0.633184,1.21802,-0.303004,0.317427,0.423092,-0.336679,-0.501465,33.09
423,-1.08915,0.649418,1.1633,-0.284264,0.267184,0.429525,-0.336679,-0.501465,31.81
425,-1.03075,-0.275934,1.86524,-0.785579,0.04946286,0.428238,0.248568,-0.501465,33.01
427,-1.02788,0.226168,1.65262,-0.43419,0.585392,0.441106,-0.336679,-0.501465,29.55
429,-0.298384,-0.856888,0.648965,0.479422,-0.15151,-0.30906,1.04346,-0.501465,24.66
431,-0.827795,-0.856888,0.724005,-0.532579,0.216941,0.322726,1.6,-0.501465,24.28
433,-1.11213,-0.856888,1.3978,-0.832431,-1.03914,0.420518,1.58877,-0.279733,26.2
435,-0.987672,0.648259,1.00697,-0.0781153,-0.436223,0.442393,-0.334184,-0.279733,39.16
437,-1.04128,-0.699184,1.84804,-1.16039,-0.352484,0.429525,1.03347,-0.279733,33.69
439,-1.09298,0.0174422,1.76362,-0.823061,0.283932,0.442393,-0.0434317,-0.279733,41.41
441,-0.869918,-0.856888,1.11015,-0.701246,0.618887,1.36498,0.315953,-0.279733,24.85
443,-0.647814,-0.856888,1.87618,-1.04795,0.920347,0.909477,-0.0209701,-0.279733,44.64
445,-0.284981,-0.856888,1.00228,0.530959,-0.0677716,0.909477,-0.2405939,-0.279733,33.27
447,-1.11213,0.633184,1.21802,-0.303004,0.317427,0.423092,-0.336679,0.163731,53.72
449,-1.08915,0.649418,1.1633,-0.284264,0.267184,0.429525,-0.336679,0.163731,51.72
451,-1.03075,-0.275934,1.86524,-0.785579,0.04946286,0.428238,0.248568,0.163731,53.77
453,-1.02788,0.226168,1.65262,-0.43419,0.585392,0.441106,-0.336679,0.163731,48.99
455,-0.298384,-0.856888,0.648965,0.479422,-0.15151,-0.30906,1.04346,0.163731,39.64
457,-0.827795,-0.856888,0.724005,-0.532579,0.216941,0.322726,1.6,0.163731,43.39
459,-1.11213,-0.856888,1.3978,-0.832431,-1.03914,0.420518,1.58877,0.860604,37.96
461,-0.987672,0.648259,1.00697,-0.0781153,-0.436223,0.442393,-0.334184,0.860604,49.99
463,-1.04128,-0.699184,1.84804,-1.16039,-0.352484,0.429525,1.03347,0.860604,37.68
465,-1.09298,0.0174422,1.76362,-0.823061,0.283932,0.442393,-0.0434317,0.860604,56.81
467,-0.869918,-0.856888,1.11015,-0.701246,0.618887,1.36498,0.315953,0.860604,33.56
469,-0.647814,-0.856888,1.87618,-1.04795,0.920347,0.909477,-0.0209701,0.860604,52.96
471,-0.284981,-0.856888,1.00228,0.530959,-0.0677716,0.909477,-0.2405939,0.860604,40.15
473,1.57801,-0.578587,0.387889,-0.916764,0.9036,-0.0761609,-0.76844,-0.279733,44.42
475,1.57801,-0.578587,0.387889,-0.916764,0.685878,-0.0761609,-0.76844,-0.279733,53.39
477,1.57801,-0.578587,0.387889,-0.916764,0.9036,-0.0761609,-0.76844,-0.675683,25.02
479,1.57801,-0.578587,0.387889,-0.916764,0.9036,-0.0761609,-0.76844,-0.612331,52.01
481,1.57801,-0.578587,0.387889,-0.916764,0.9036,-0.0761609,-0.76844,-0.612331,39.3
483,1.57801,-0.578587,0.387889,-0.916764,0.9036,-0.0761609,-0.76844,0.163731,56.14
485,1.57801,-0.578587,0.387889,-0.916764,0.685878,-0.0761609,-0.76844,0.163731,54.77
487,1.01318,-0.62497,0.622388,-1.15102,1.2888,-0.449313,0.891217,-0.279733,46.68
489,1.01318,-0.62497,0.622388,-1.15102,1.35579,-0.449313,0.891217,-0.675683,22.75
491,1.01318,-0.62497,0.622388,-1.15102,0.9036,-0.449313,0.891217,-0.675683,34.77
493,1.01318,-0.62497,0.622388,-1.15102,1.2888,-0.449313,0.891217,-0.612331,45.9
495,1.01318,-0.62497,0.622388,-1.15102,1.35579,-0.449313,0.891217,0.163731,56.34
497,1.01318,-0.62497,0.622388,-1.15102,0.9036,-0.449313,0.891217,0.163731,61.46
499,0.706828,-0.636566,0.669288,-1.71325,1.02083,-0.0761609,1.21566,-0.279733,55.45
631,-0.53772,-0.856888,-0.847144,-0.0265782,-1.03914,1.80247,0.741474,-0.279733,17.34
633,0.419624,-0.856888,-0.847144,0.113977,-1.03914,1.1591,0.117543,-0.279733,30.57
635,-0.0590477,-0.856888,-0.847144,0.0671256,-1.03914,1.48079,0.429508,-0.279733,24.5
637,0.180288,-0.856888,-0.847144,0.113977,-1.03914,1.31351,0.267286,-0.279733,26.85
639,0.898297,-0.856888,-0.847144,0.207681,-1.03914,0.83742,-0.194423,-0.279733,38.21
641,1.13763,-0.856888,-0.847144,0.254533,-1.03914,0.670144,-0.356645,-0.612331,30.14
643,-0.298384,-0.856888,-0.847144,0.0202737,-1.03914,1.63519,0.579252,-0.279733,20.87
645,0.658961,-0.856888,-0.847144,0.207681,-1.03914,0.991828,-0.0446795,-0.279733,34.29
647,-0.296469,1.07731,-0.847144,1.02759,-1.03914,0.0602328,-0.991807,0.702224,47.71
649,-1.33902,1.60144,-0.847144,1.02759,-1.03914,-0.0143977,-0.31297,-0.279733,29.89
651,-1.51804,1.2756,-0.847144,1.02759,-1.03914,-0.189393,0.330927,0.702224,33.19
653,-1.71525,0.917283,-0.847144,0.488793,-1.03914,-1.10555,2.10164,-0.675683,4.57
655,-1.51804,1.2756,-0.847144,1.02759,-1.03914,-0.189393,0.330927,-0.279733,24.29
657,-0.777056,0.685366,-0.847144,0.488793,-1.03914,-0.09674858,0.407047,-0.675683,11.41
659,0.231028,1.50288,-0.847144,1.02759,-1.03914,-0.09674858,-1.77921,-0.612331,25.89
661,-1.58123,1.1492,-0.847144,0.488793,-1.03914,-0.812172,1.47646,0.702224,31.02
663,-1.18871,1.87974,-0.847144,0.488793,-1.03914,-0.482768,0.095081,-0.279733,33.66
665,-0.296469,1.07731,-0.847144,1.02759,-1.03914,0.0602328,-0.991807,-0.612331,19.35
667,-0.853644,2.48273,-0.847144,0.488793,-1.03914,-0.554826,-0.717277,-0.675683,12.79
669,-1.22701,0.325893,-0.847144,0.488793,-1.03914,-1.09268,2.11537,-0.675683,4.78
671,0.231028,1.50288,-0.847144,1.02759,-1.03914,-0.09674858,-1.77921,-0.279733,43.38
673,-1.03554,0.488235,-0.847144,0.488793,-1.03914,-0.336081,1.03846,-0.675683,6.94
675,-0.432412,0.963667,-0.847144,0.488793,-1.03914,-0.004103804,-0.305483,-0.675683,13.57
677,-1.09489,2.0444,-0.847144,1.02759,-1.03914,0.0344982,-1.01052,-0.612331,15.75
679,0.0654071,1.36952,-0.847144,0.488793,-1.03914,-0.526517,-0.696064,-0.279733,38.8
681,-1.71525,0.917283,-0.847144,0.488793,-1.03914,-1.10555,2.10164,-0.279733,17.28
683,-0.931188,0.564768,-0.847144,1.02759,-1.03914,-0.176526,0.329679,-0.279733,24.05
685,-0.853644,2.48273,-0.847144,0.488793,-1.03914,-0.554826,-0.717277,0.702224,50.73
687,0.231028,1.50288,-0.847144,1.02759,-1.03914,-0.09674858,-1.77921,-0.675683,14.14
689,-1.65494,1.02628,-0.847144,1.02759,-1.03914,-0.44674,0.941132,-0.675683,2.33
691,0.0654071,1.36952,-0.847144,0.488793,-1.03914,-0.526517,-0.696064,-0.612331,23.52
693,-0.662175,0.781611,-0.847144,1.02759,-1.03914,0.00619006,-0.294252,0.702224,39.7
695,-0.432412,0.963667,-0.847144,0.488793,-1.03914,-0.004103804,-0.305483,-0.279733,32.88
697,-0.931188,0.564768,-0.847144,1.02759,-1.03914,-0.176526,0.329679,-0.612331,10.79
699,-0.743549,2.68334,-0.847144,1.02759,-1.03914,-0.122483,-1.79169,-0.279733,41.68
701,-1.41848,1.46229,-0.847144,0.488793,-1.03914,-0.585707,0.818841,-0.675683,6.88
703,-0.777056,0.685366,-0.847144,0.488793,-1.03914,-0.09674858,0.407047,-0.612331,17.17
705,-0.296469,1.07731,-0.847144,1.02759,-1.03914,0.0602328,-0.991807,-0.675683,9.73
707,-1.22701,0.325893,-0.847144,0.488793,-1.03914,-1.09268,2.11537,0.702224,26.32
709,-1.58123,1.1492,-0.847144,0.488793,-1.03914,-0.812172,1.47646,-0.675683,6.28
711,-0.296469,1.07731,-0.847144,1.02759,-1.03914,0.0602328,-0.991807,-0.279733,36.96
713,-0.853644,2.48273,-0.847144,0.488793,-1.03914,-0.554826,-0.717277,-0.612331,21.48
715,-1.22701,0.325893,-0.847144,0.488793,-1.03914,-1.09268,2.11537,-0.612331,8.37
717,-1.58123,1.1492,-0.847144,0.488793,-1.03914,-0.812172,1.47646,-0.612331,10.09
719,-1.51804,1.2756,-0.847144,1.02759,-1.03914,-0.189393,0.330927,-0.612331,10.35
721,-0.743549,2.68334,-0.847144,1.02759,-1.03914,-0.122483,-1.79169,0.702224,51.86
723,0.276023,-0.856888,-0.847144,0.488793,-1.03914,0.502869,0.704038,-0.612331,17.24
725,0.276023,-0.856888,-0.847144,0.488793,-1.03914,0.502869,0.704038,0.702224,35.76
727,0.477065,-0.856888,-0.847144,0.488793,-1.03914,0.670144,0.59173,-0.675683,14.31
729,0.477065,-0.856888,-0.847144,0.488793,-1.03914,0.670144,0.59173,-0.279733,31.74
731,0.477065,-0.856888,-0.847144,0.488793,-1.03914,0.670144,0.59173,1.17736,39.38
733,0.649387,-0.856888,-0.847144,0.488793,-1.03914,1.06903,0.441987,-0.612331,9.01
735,0.649387,-0.856888,-0.847144,0.488793,-1.03914,1.06903,0.441987,0.702224,40.66
737,-0.413265,-0.856888,-0.847144,0.207681,-1.03914,1.87967,0.192414,-0.612331,12.05
739,0.141995,-0.856888,-0.847144,0.207681,-1.03914,1.50652,-0.0571581,-0.612331,18.91
741,0.151568,-0.856888,-0.847144,0.207681,-1.03914,0.863154,-0.49391,-0.612331,30.96
743,1.90351,-0.856888,-0.847144,0.488793,-1.03914,-0.475048,-0.656132,0.702224,54.28
745,-0.001607037,-0.856888,-0.847144,0.207681,-1.03914,1.68666,0.005234964,-0.612331,14.5
747,2.09498,-0.856888,-0.847144,0.863608,-1.03914,1.95688,-2.00382,-0.707359,12.64
749,2.09498,-0.856888,-0.847144,0.863608,-1.03914,1.95688,-2.00382,-0.612331,33.21
751,2.09498,-0.856888,-0.847144,0.863608,-1.03914,1.95688,-2.00382,-0.279733,44.09
753,2.47791,-0.856888,-0.847144,-0.401393,-1.03914,1.95688,-2.00382,-0.501465,59.76
755,2.47791,-0.856888,-0.847144,-0.401393,-1.03914,1.95688,-2.00382,0.702224,69.66
757,2.47791,-0.856888,-0.847144,-0.401393,-1.03914,1.95688,-2.00382,3.55307,74.17
759,0.658961,-0.856888,-0.847144,1.00416,-1.03914,0.0139105,0.0177136,-0.501465,22.53
761,0.658961,-0.856888,-0.847144,1.00416,-1.03914,0.0139105,0.0177136,0.163731,29.98
763,0.658961,-0.856888,-0.847144,1.00416,-1.03914,0.0139105,0.0177136,2.12764,32.72
765,0.994031,-0.856888,-0.847144,0.207681,-1.03914,-0.0890282,-0.13203,-0.675683,14.7
767,0.994031,-0.856888,-0.847144,0.207681,-1.03914,-0.0890282,-0.13203,-0.501465,27.92
769,0.477065,-0.856888,-0.847144,0.488793,-1.03914,0.0653798,0.641645,2.12764,39
771,0.649387,-0.856888,-0.847144,0.488793,-1.03914,0.953226,0.404551,-0.675683,14.99
773,0.965311,-0.856888,-0.847144,0.207681,-1.03914,0.953226,-0.431517,-0.612331,24
775,0.965311,-0.856888,-0.847144,0.207681,-1.03914,1.77673,0.130021,-0.612331,11.47
777,0.553653,-0.856888,-0.847144,0.160829,-1.03914,1.23631,-0.244337,-0.612331,21.16
779,0.132421,-0.856888,-0.847144,0.160829,-1.03914,1.23631,-0.0571581,-0.612331,14.8
781,-0.413265,-0.856888,-0.847144,0.160829,-1.03914,1.86681,0.192414,-0.279733,17.54
783,0.141995,-0.856888,-0.847144,0.488793,-1.03914,1.44218,-0.107073,-0.279733,21.65
785,0.477065,-0.856888,-0.847144,0.488793,-1.03914,-1.20849,0.641645,-0.675683,13.52
787,0.477065,-0.856888,-0.847144,0.488793,-1.03914,0.0653798,0.641645,-0.279733,31.45
789,0.649387,-0.856888,-0.847144,0.488793,-1.03914,0.953226,0.404551,-0.612331,18.13
791,0.649387,-0.856888,-0.847144,0.488793,-1.03914,0.953226,0.404551,0.702224,39.49
793,0.649387,-0.856888,-0.847144,0.488793,-1.03914,0.953226,0.404551,4.97849,42.13
795,0.199435,-0.856888,-0.847144,1.00416,-1.03914,0.0139105,0.541816,2.12764,26.74
797,2.09498,-0.856888,-0.847144,0.863608,-1.03914,1.95688,-2.00382,0.702224,47.22
799,2.09498,-0.856888,-0.847144,0.863608,-1.03914,1.95688,-2.00382,3.55307,55.16
801,-0.279237,-0.856888,-0.847144,0.160829,-1.03914,1.77673,0.130021,-0.612331,13.71
803,0.553653,-0.856888,-0.847144,0.160829,-1.03914,1.1205,-0.244337,-0.279733,31.65
805,1.07062,-0.856888,-0.847144,0.488793,-1.03914,-0.423579,-0.194423,-0.279733,39.58
807,0.965311,-0.856888,-0.847144,0.160829,-1.03914,0.953226,-0.431517,-0.612331,24
809,-0.279237,-0.856888,-0.847144,0.207681,-1.03914,1.77673,0.130021,-0.612331,11.47
811,0.276023,-0.856888,-0.847144,0.488793,-1.03914,-0.0375589,0.95361,-0.612331,14.99
813,0.276023,-0.856888,-0.847144,0.488793,-1.03914,-0.0375589,0.95361,0.702224,34.68
815,0.276023,-0.856888,-0.847144,0.488793,-1.03914,-0.0375589,0.95361,4.97849,38.11
817,2.33431,-0.856888,-0.847144,0.348237,-1.03914,1.95688,-2.00382,-0.612331,42.42
819,2.33431,-0.856888,-0.847144,0.348237,-1.03914,1.95688,-2.00382,-0.279733,55.94
821,2.33431,-0.856888,-0.847144,0.348237,-1.03914,1.95688,-2.00382,3.55307,67.11
823,0.390904,-0.856888,-0.847144,1.00416,-1.03914,0.0139105,0.329679,-0.279733,25.18
825,0.199435,-0.856888,-0.847144,1.00416,-1.03914,0.0139105,0.541816,-0.279733,21.75
827,1.90351,-0.856888,-0.847144,0.488793,-1.03914,-0.475048,-0.656132,-0.675683,24.39
829,2.30559,-0.856888,-0.847144,-1.66639,-1.03914,-0.989741,1.52763,-0.279733,74.99
831,-1.14085,1.34633,1.46659,-0.120282,2.14294,-1.73605,-0.40656,-0.279733,33.76
833,-1.28445,0.47664,0.544222,0.957312,0.468157,-1.45297,0.691559,-0.279733,19.99
835,0.276023,0.801324,0.888155,-0.635653,2.64537,-0.758129,-1.52964,-0.279733,33.69
837,0.218582,0.766537,-0.847144,1.51953,-0.034276,-1.00261,-0.643653,-0.279733,33.42
839,-1.16957,0.8709,0.966321,-0.30769,1.47302,-0.256303,-0.668611,-0.279733,27.68
841,0.276023,0.801324,-0.847144,-0.635653,0.635635,-0.758129,0.379594,-0.279733,45.3
843,-1.24615,-0.856888,2.02939,-0.682505,0.970591,0.232655,-0.0197223,-0.279733,15.57
845,0.161142,0.731749,0.825622,0.91046,-0.034276,-1.22135,-1.47972,-0.279733,53.52
847,0.812136,1.31154,-0.847144,0.441941,0.133202,-1.91619,-0.206902,-0.279733,65.91
849,-0.279237,0.267913,0.340989,0.582497,0.30068,-1.77465,0.59173,-0.279733,33.4
851,-1.19829,1.96091,-0.847144,-0.0734301,0.803113,0.631542,-0.94314,-0.279733,37.36
853,0.161142,-0.856888,0.825622,0.207681,-0.034276,-1.20849,0.516858,-0.279733,42.64
855,0.0558336,0.546215,0.622388,0.301385,0.468157,-0.886803,-0.968098,-0.279733,41.94
857,0.716401,-0.856888,1.37279,0.535645,0.803113,-2.21214,0.0551495,-0.279733,40.87
859,0.390904,0.8709,-0.847144,0.207681,0.30068,-0.282038,-0.805875,-0.279733,52.42
861,0.314317,-0.856888,0.919421,-0.541949,0.635635,-0.616589,0.117543,-0.279733,38.46
863,-1.35146,1.04484,1.15392,2.59713,-0.034276,-1.33716,-1.46724,-0.279733,35.23
865,0.161142,-0.856888,0.825622,1.33213,0.803113,-1.19562,-0.369124,-0.279733,31.87
867,-1.15999,2.04208,-0.847144,-0.635653,0.970591,0.97896,-1.06793,-0.279733,39.45
869,-0.0494743,0.488235,0.559855,-0.0734301,0.468157,-1.32429,-0.0696368,-0.279733,44.28
871,-1.2653,0.754941,0.856888,0.535645,-0.034276,-1.04121,0.0801067,-0.279733,23.69
873,-0.193076,0.302701,0.372255,0.91046,0.468157,-1.4015,-0.156987,-0.279733,32.4
875,0.304743,-0.856888,0.919421,-0.167134,0.30068,0.374196,-1.05545,-0.279733,36.8
877,-1.29402,1.81017,-0.847144,0.957312,-0.536709,-1.87759,1.22814,-0.279733,33.06
879,-1.41848,1.57825,-0.847144,0.6762,-0.536709,-0.307773,0.267286,-0.279733,31.03
881,-1.23658,-0.856888,0.903788,0.113977,0.30068,0.245522,0.529337,-0.279733,12.18
883,-1.35146,0.685366,0.763088,0.863608,0.133202,-0.732395,-0.256816,-0.279733,36.44
885,0.180288,-0.856888,1.02885,1.42583,0.635635,-1.22135,-0.568782,-0.279733,23.84
887,-1.27488,-0.856888,1.29462,-1.10417,1.6405,0.374196,0.704038,-0.279733,17.95
889,-1.22701,0.824516,-0.847144,-0.167134,0.30068,0.348461,0.604209,-0.279733,19.01
891,-1.17914,-0.856888,2.20135,1.80065,0.803113,-0.964007,-0.755961,-0.279733,8.54
893,-0.0781946,-0.856888,0.559855,0.816756,0.803113,-0.539385,-0.144509,-0.279733,32.24
895,-1.32274,1.10282,1.38842,0.441941,0.30068,-0.0761609,-1.62946,-0.279733,29.72
897,0.304743,1.01005,-0.847144,-0.167134,0.635635,-0.719527,-0.181944,-0.279733,52.44
899,0.524932,-0.856888,-0.847144,0.0202737,-0.536709,0.168318,0.541816,-0.279733,44.86
901,-1.25573,1.89134,-0.847144,-0.354542,0.970591,1.23631,-1.23015,-0.279733,37.43
903,0.477065,1.11441,-0.847144,0.629348,0.30068,-2.08346,0.354636,-0.279733,56.61
905,-1.20786,1.26516,-0.847144,0.535645,0.468157,-1.23422,1.17823,-0.279733,23.79
907,-0.145209,0.441852,0.512955,-0.167134,0.635635,-0.809599,-0.356645,-0.279733,39.42
909,0.304743,0.824516,-0.847144,-2.55658,0.30068,0.348461,0.604209,-0.279733,44.52
911,-1.31317,0.720153,0.809988,-0.167134,0.133202,-0.410711,0.005234964,-0.279733,26.14
913,-0.0399008,0.499831,0.575488,0.441941,0.133202,-0.346375,-1.34246,-0.279733,43.57
915,0.304743,0.824516,-0.847144,-0.167134,0.30068,0.374196,-1.05545,-0.279733,41.05
917,0.0749805,0.696961,-0.847144,0.629348,-0.034276,-0.629456,-0.169466,-0.279733,46.24
919,-1.3036,-0.856888,1.95122,0.957312,0.30068,-1.91619,1.1907,-0.279733,10.54
921,-1.38976,1.02165,1.12265,-0.448245,0.635635,-0.642323,-0.119551,-0.279733,29.07
923,-0.250517,0.291105,0.356622,0.348237,-0.034276,-0.693793,-0.306731,-0.279733,33.8
925,-1.38976,1.41591,0.684922,0.816756,-0.034276,-1.62024,0.117543,-0.279733,26.97
927,-1.14085,1.62463,1.71672,0.957312,0.635635,-1.96766,-1.16776,-0.279733,30.65
929,-1.2653,0.917283,2.18572,0.488793,0.30068,-0.487915,-1.87904,-0.279733,24.58
931,-1.16957,1.56665,1.66982,0.91046,0.133202,-1.60737,-1.30502,-0.279733,30.88
933,-1.21743,1.1608,2.04502,2.17546,0.133202,-1.64598,-2.0163,-0.279733,24.34
935,-0.930231,0.140359,2.12319,1.47268,-0.034276,-0.642323,-1.87904,-0.279733,22.93
937,-0.423796,0.206455,0.270639,3.06096,-0.034276,-1.54432,-0.975585,-0.279733,28.63
939,-1.20978,1.2698,-0.847144,0.5497,0.484905,0.958372,-0.959363,-0.279733,18.29
941,0.141995,-0.856888,0.820932,1.86624,0.719374,-1.97795,0.0601409,-0.279733,31.42
943,0.307615,0.824516,-0.847144,-0.143708,0.30068,-1.36032,0.629166,-0.279733,40.93
945,-1.22605,0.824516,0.919421,-0.143708,0.30068,0.372909,-1.05919,-0.279733,25.56
947,-1.26051,1.87974,-0.847144,-0.270208,1.07108,-1.62281,1.48645,-0.279733,32.96
949,-1.22605,0.824516,0.919421,-0.143708,0.30068,-1.36032,0.629166,-0.279733,26.23
951,0.433985,-0.856888,1.30869,0.816756,0.769617,-2.21085,0.236089,-0.279733,38.63
953,-0.18446,0.424458,0.498885,0.648089,-0.201754,-1.00004,-0.51138,-0.279733,33.72
955,-1.24903,-0.856888,2.04971,-0.69656,1.57351,1.30708,-1.19271,-0.279733,13.46
957,-1.2653,0.506789,0.586432,0.0624404,0.14995,-0.251157,0.0838503,-0.279733,23.52
959,-0.203607,0.309659,0.378509,-0.513838,0.702626,-0.478908,-0.133278,-0.279733,49.77
961,0.0271133,0.53114,-0.847144,-0.621597,0.166697,-0.03241193,0.257303,-0.279733,40.93
963,-1.30551,-0.856888,1.24147,-0.0359486,0.819861,0.0846808,0.473183,-0.279733,13.2
965,-1.31604,1.11673,1.22583,0.470052,0.384418,-2.04358,0.395816,-0.279733,29.87
967,-1.20978,-0.856888,1.38529,0.5497,0.484905,0.958372,-0.959363,-0.279733,12.46
969,-1.4022,-0.856888,1.7433,-0.0640597,0.635635,-0.153365,0.390824,-0.279733,13.29
971,0.314317,0.827995,0.922548,-0.124967,0.30068,-1.33587,-1.04047,-0.279733,46.23
973,-1.29689,1.14456,-0.847144,0.0155885,-0.469718,0.165745,0.53932,-0.279733,23.74
975,-1.27392,-0.856888,1.99968,-0.007837459,1.47302,-1.72447,1.38163,-0.279733,15.53
977,0.162099,-0.856888,0.833438,-0.841801,1.10457,-0.25373,0.130021,-0.279733,35.87
979,-1.20595,1.2756,1.39155,0.573126,0.501653,-1.20077,-0.936901,-0.279733,28.99
981,-1.27679,1.17355,-0.847144,-0.485727,-0.670692,0.348461,0.68532,-0.279733,26.92
983,0.301871,-0.856888,-0.847144,-0.162449,0.30068,0.344601,0.606705,-0.279733,25.1
985,-1.20978,-0.856888,1.38529,0.5497,0.484905,-1.23165,1.17448,-0.279733,9.74
987,-0.0801093,0.36184,0.431662,1.31807,0.468157,-0.886803,-1.1715,-0.279733,37.17
989,-1.22126,0.81524,0.908478,1.80533,0.652383,-0.63975,-1.44353,-0.279733,16.5
991,-1.2385,1.20834,1.3212,-0.659079,2.0257,-0.372109,-0.985568,-0.279733,36.35
993,-1.317,-0.856888,1.88712,-1.08543,1.95871,-0.388837,0.884978,-0.279733,15.42
995,0.891595,-0.856888,-0.847144,0.404459,0.0829584,0.51831,-0.538833,-0.279733,39.06
997,-1.23084,1.91105,-0.847144,0.863608,0.0159673,0.371622,-1.11909,-0.279733,26.86
999,0.226241,-0.856888,0.709935,0.6762,0.60214,-0.173953,-0.853294,-0.279733,30.12
1001,-1.33327,1.07499,1.1805,-0.377967,0.786365,-1.16216,0.146243,-0.279733,44.61
1003,0.384203,1.04716,-0.847144,0.418515,-0.268745,-1.32429,0.005234964,-0.279733,57.22
1005,-0.01309517,0.637822,0.722442,-0.429505,0.551896,-1.90203,0.390824,-0.279733,52.83
1007,-1.11596,-0.856888,1.50411,0.001532922,0.920347,0.64827,-0.557551,-0.279733,18.03
1009,-1.15808,1.32314,1.44157,1.01353,0.853356,-1.85571,-0.79714,-0.279733,35.31
1011,0.351653,-0.856888,1.13047,1.31807,-0.0845194,-1.44653,-0.461466,-0.279733,40.06
1013,0.425369,1.07267,-0.847144,-0.354542,0.45141,-1.17503,0.204893,-0.279733,61.24
1015,-1.42805,1.53766,1.66826,-0.124967,-0.118015,-1.36418,-0.473944,-0.279733,33.31
1017,-1.11979,-0.856888,2.28108,-0.01720784,1.07108,-1.59065,0.903696,-0.279733,15.09
1019,0.38516,-0.856888,1.15236,0.0436996,0.886852,-1.32301,0.0763631,-0.279733,37.27
1021,0.0692364,0.546215,-0.847144,-0.195245,0.133202,-0.83662,0.697799,-0.279733,42.14
1023,-0.159569,0.430256,0.505138,0.652774,-0.0510238,-1.80553,0.209884,-0.279733,41.54
1025,-1.10255,2.15456,-0.847144,0.076496,1.08783,-1.46841,0.664106,-0.279733,37.92
1027,0.392819,-0.856888,0.960068,0.6762,0.702626,-1.99468,0.496893,-0.279733,31.18
1029,-1.16861,1.30806,-0.847144,-0.2795785,0.853356,0.214641,0.191166,-0.279733,32.77
1030,-0.194033,0.308499,0.376945,0.891719,0.401166,-1.39506,-0.150748,-0.279733,32.4