File: standardized_data.csv
Cement (component 1)(kg in a m^3 mixture),Blast Furnace Slag (component 2)(kg in a m^3 mixture),Fly Ash (component 3)(kg in a m^3 mixture),Water  (component 4)(kg in a m^3 mixture),Superplasticizer (component 5)(kg in a m^3 mixture),Coarse Aggregate  (component 6)(kg in a m^3 mixture),Fine Aggregate (component 7)(kg in a m^3 mixture),Age (day),"Concrete compressive strength(MPa, megapascals) "
2.47791,-0.856888,-0.847144,-0.916764,-0.620448,0.863154,-1.21767,-0.279733,79.99
0.491425,0.795526,-0.847144,2.17546,-1.03914,-0.526517,-2.24092,3.55307,40.27
-0.790459,0.678408,-0.847144,0.488793,-1.03914,0.0705267,0.647884,4.97849,44.3
0.946164,0.244722,-0.847144,2.17546,-1.03914,-0.526517,-2.24092,5.05768,43.7
-0.145209,0.465044,-0.847144,2.17546,-1.03914,-0.526517,-1.29254,-0.279733,45.85
-0.790459,0.678408,-0.847144,0.488793,-1.03914,0.0705267,0.647884,0.702224,38.07
1.4009,-0.306083,-0.847144,2.17546,-1.03914,-0.526517,-2.24092,3.55307,43.01
0.218582,0.0243998,-0.847144,2.17546,-1.03914,-0.526517,-1.29254,-0.279733,47.81
-1.35529,1.57129,-0.847144,0.488793,-1.03914,0.953226,0.415782,0.702224,39.36
0.946164,0.244722,-0.847144,2.17546,-1.03914,-0.526517,-2.24092,0.702224,40.56
1.4009,-0.306083,-0.847144,2.17546,-1.03914,-0.526517,-2.24092,2.12764,41.84
-1.35529,1.57129,-0.847144,0.488793,-1.03914,0.953226,0.415782,-0.675683,8.06
0.946164,-0.856888,-0.847144,2.17546,-1.03914,-0.526517,-1.29254,5.05768,52.52
0.946164,0.244722,-0.847144,2.17546,-1.03914,-0.526517,-2.24092,3.55307,41.15
1.4009,-0.306083,-0.847144,2.17546,-1.03914,-0.526517,-2.24092,-0.279733,37.43
0.218582,0.0243998,-0.847144,2.17546,-1.03914,-0.526517,-1.29254,5.05768,55.26
-0.790459,0.678408,-0.847144,0.488793,-1.03914,0.0705267,0.647884,2.12764,41.72
-0.87279,1.34633,-0.847144,2.17546,-1.03914,-0.526517,-1.29254,5.05768,53.69
-0.418052,1.89714,-0.847144,2.17546,-1.03914,-0.526517,-2.24092,-0.279733,30.08
1.85564,-0.856888,-0.847144,2.17546,-1.03914,-0.526517,-2.24092,0.702224,42.23
0.582373,-0.416244,-0.847144,2.17546,-1.03914,-0.526517,-1.29254,0.702224,50.46
-0.418052,1.89714,-0.847144,2.17546,-1.03914,-0.526517,-2.24092,5.05768,39.0
1.4009,-0.306083,-0.847144,2.17546,-1.03914,-0.526517,-2.24092,0.702224,41.54
0.649387,-0.856888,-0.847144,0.488793,-1.03914,0.953226,0.415782,-0.675683,15.05
-0.418052,1.89714,-0.847144,2.17546,-1.03914,-0.526517,-2.24092,-0.612331,26.26
0.491425,0.795526,-0.847144,2.17546,-1.03914,-0.526517,-2.24092,2.12764,39.78
-0.418052,1.89714,-0.847144,2.17546,-1.03914,-0.526517,-2.24092,0.702224,33.12
-1.35529,1.57129,-0.847144,0.488793,-1.03914,0.953226,0.415782,-0.612331,14.59
1.85564,-0.856888,-0.847144,2.17546,-1.03914,-0.526517,-2.24092,5.05768,41.93
0.218582,0.0243998,-0.847144,2.17546,-1.03914,-0.526517,-1.29254,2.12764,50.95
0.218582,0.0243998,-0.847144,2.17546,-1.03914,-0.526517,-1.29254,3.55307,54.38
0.276023,-0.856888,-0.847144,0.488793,-1.03914,-0.0246915,0.961097,-0.675683,9.87
-0.145209,0.465044,-0.847144,2.17546,-1.03914,-0.526517,-1.29254,2.12764,48.7
-1.35529,1.57129,-0.847144,0.488793,-1.03914,0.953226,0.415782,4.97849,44.7
-0.87279,1.34633,-0.847144,2.17546,-1.03914,-0.526517,-1.29254,-0.279733,40.86
0.888723,1.33705,-0.847144,-0.537264,0.652383,-0.602435,-0.210645,-0.675683,34.4
1.37697,0.375755,-0.847144,-1.31501,1.72424,-1.55462,1.41657,-0.675683,33.4
0.898297,0.230807,-0.847144,-2.57532,2.87984,-1.55462,2.73306,-0.675683,29.0
1.7982,0.50215,-0.847144,-2.05058,4.35364,-1.55462,0.835063,-0.675683,40.2
1.0285,0.269073,-0.847144,-1.10886,0.987339,-1.55462,1.89824,-0.675683,28.1
1.37697,0.375755,-0.847144,-1.31501,1.72424,-1.55462,1.41657,-0.675683,33.4
1.15486,0.241243,-0.847144,-1.6008,0.870104,-0.336081,0.979815,-0.675683,41.1
0.407179,2.42243,-0.847144,0.104607,0.685878,-0.388837,-1.41858,-0.675683,28.3
0.779586,1.33474,-0.847144,-0.780894,0.9036,-0.363102,-0.221876,-0.675683,35.3
0.779586,1.33474,-0.847144,-0.780894,0.9036,-0.363102,-0.221876,-0.675683,35.3
1.04094,1.33474,-0.847144,-1.67108,2.64537,-0.363102,-0.221876,-0.675683,40.6
0.543122,1.33474,-0.847144,-0.312375,0.551896,-0.363102,-0.221876,-0.675683,24.1
0.307615,2.18355,-0.847144,-0.284264,0.401166,0.951939,-2.0188,-0.612331,42.8
1.37697,0.375755,-0.847144,-1.41339,2.07594,-0.475048,0.37585,-0.612331,46.8
1.85564,0.520704,-0.847144,-0.021893,0.45141,-1.55462,0.0988246,-0.612331,55.6
1.37697,0.375755,-0.847144,-1.31501,1.72424,-1.55462,1.41657,-0.612331,49.2
2.39463,-0.856888,-0.847144,-1.86317,3.68373,-1.55462,1.49893,-0.612331,46.9
0.360269,1.60724,-0.847144,-1.21193,1.35579,-1.55462,1.33296,-0.612331,33.4
0.779586,1.33474,-0.847144,-0.780894,0.9036,-0.363102,-0.221876,-0.612331,55.9
0.941377,0.896411,-0.847144,-1.29626,1.62375,2.07654,-2.10365,-0.612331,47.1
0.0491322,1.47273,-0.847144,-1.7273,0.836609,0.407651,0.37585,-0.612331,38.0
1.511,1.19558,-0.847144,0.207681,0.819861,-1.13257,-0.819602,-0.612331,56.1
0.779586,1.33474,-0.847144,-0.780894,0.9036,-0.363102,-0.221876,-0.612331,22.9
0.888723,1.33705,-0.847144,-0.537264,0.652383,-0.602435,-0.210645,-0.279733,61.09
1.37697,0.375755,-0.847144,-1.31501,1.72424,-1.55462,1.41657,-0.279733,60.29
0.898297,0.230807,-0.847144,-2.57532,2.87984,-1.55462,2.73306,-0.279733,56.7
1.7982,0.50215,-0.847144,-2.05058,4.35364,-1.55462,0.835063,-0.279733,66.9
1.0285,0.269073,-0.847144,-1.10886,0.987339,-1.55462,1.89824,-0.279733,50.7
1.37697,0.375755,-0.847144,-1.31501,1.72424,-1.55462,1.41657,-0.279733,60.29
1.15486,0.241243,-0.847144,-1.6008,0.870104,-0.336081,0.979815,-0.279733,68.5
0.407179,2.42243,-0.847144,0.104607,0.685878,-0.388837,-1.41858,-0.279733,74.7
0.779586,1.33474,-0.847144,-0.780894,0.9036,-0.363102,-0.221876,-0.279733,71.3
0.779586,1.33474,-0.847144,-0.780894,0.9036,-0.363102,-0.221876,-0.279733,71.3
1.04094,1.33474,-0.847144,-1.67108,2.64537,-0.363102,-0.221876,-0.279733,74.5
0.543122,1.33474,-0.847144,-0.312375,0.551896,-0.363102,-0.221876,-0.279733,49.9
0.307615,2.18355,-0.847144,-0.284264,0.401166,0.951939,-2.0188,0.163731,64.9
1.37697,0.375755,-0.847144,-1.41339,2.07594,-0.475048,0.37585,0.163731,64.9
1.85564,0.520704,-0.847144,-0.021893,0.45141,-1.55462,0.0988246,0.163731,72.3
1.37697,0.375755,-0.847144,-1.31501,1.72424,-1.55462,1.41657,0.163731,64.3
2.39463,-0.856888,-0.847144,-1.86317,3.68373,-1.55462,1.49893,0.163731,58.8
0.360269,1.60724,-0.847144,-1.21193,1.35579,-1.55462,1.33296,0.163731,66.1
0.779586,1.33474,-0.847144,-0.780894,0.9036,-0.363102,-0.221876,0.163731,77.3
0.941377,0.896411,-0.847144,-1.29626,1.62375,2.07654,-2.10365,0.163731,54.9
0.0491322,1.47273,-0.847144,-1.7273,0.836609,0.407651,0.37585,0.163731,72.99
1.511,1.19558,-0.847144,0.207681,0.819861,-1.13257,-0.819602,0.163731,71.7
0.779586,1.33474,-0.847144,-0.780894,0.9036,-0.363102,-0.221876,0.163731,77.3
0.888723,1.33705,-0.847144,-0.537264,0.652383,-0.602435,-0.210645,0.718062,64.9
1.37697,0.375755,-0.847144,-1.31501,1.72424,-1.55462,1.41657,0.718062,65.2
0.898297,0.230807,-0.847144,-2.57532,2.87984,-1.55462,2.73306,0.718062,62.5
1.7982,0.50215,-0.847144,-2.05058,4.35364,-1.55462,0.835063,0.718062,70.7
1.0285,0.269073,-0.847144,-1.10886,0.987339,-1.55462,1.89824,0.718062,57.6
1.37697,0.375755,-0.847144,-1.31501,1.72424,-1.55462,1.41657,0.718062,65.2
1.15486,0.241243,-0.847144,-1.6008,0.870104,-0.336081,0.979815,0.718062,75.5
0.941377,0.896411,-0.847144,-1.29626,1.62375,2.07654,-2.10365,0.718062,56.5
0.0491322,1.47273,-0.847144,-1.7273,0.836609,0.407651,0.37585,0.718062,76.8
1.511,1.19558,-0.847144,0.207681,0.819861,-1.13257,-0.819602,0.718062,73.3
0.779586,1.33474,-0.847144,-0.780894,0.9036,-0.363102,-0.221876,0.718062,79.3
-0.562611,-0.856888,0.664598,0.362293,-0.285493,-0.0748741,1.20693,-0.675683,11.58
-0.562611,-0.856888,0.664598,0.362293,-0.285493,-0.0748741,1.20693,-0.279733,24.89
-0.562611,-0.856888,0.664598,0.362293,-0.285493,-0.0748741,1.20693,0.860604,40.71
-0.453474,-0.856888,0.631768,0.765219,-0.268745,-0.333507,0.981063,-0.501465,22.14
-0.453474,-0.856888,0.631768,0.765219,-0.268745,-0.333507,0.981063,0.163731,27.66
-0.827795,-0.856888,0.724005,-0.748098,0.216941,0.430812,1.65117,-0.675683,12.45
-0.827795,-0.856888,0.724005,-0.748098,0.216941,0.430812,1.65117,-0.279733,25.72
-0.827795,-0.856888,0.724005,-0.748098,0.216941,0.430812,1.65117,0.860604,37.34
-0.866089,-0.856888,1.11327,-0.912079,0.267184,1.50652,0.379594,-0.501465,21.06
-0.866089,-0.856888,1.11327,-0.912079,0.267184,1.50652,0.379594,0.163731,35.34
-0.661217,-0.856888,1.05387,-0.0593746,-0.0845194,1.08962,0.0713717,-0.675683,12.47
-0.661217,-0.856888,1.05387,-0.0593746,-0.0845194,1.08962,0.0713717,-0.279733,24.9
-0.661217,-0.856888,1.05387,-0.0593746,-0.0845194,1.08962,0.0713717,0.860604,39.61
-0.489853,-0.856888,1.00228,0.652774,-0.268745,0.726761,-0.186936,-0.501465,20.08
-0.489853,-0.856888,1.00228,0.652774,-0.268745,0.726761,-0.186936,0.163731,31.54
-0.869918,-0.856888,1.11015,-0.92145,0.618887,1.48207,0.362124,-0.675683,9.45
-0.869918,-0.856888,1.11015,-0.92145,0.618887,1.48207,0.362124,-0.279733,28.47
-0.869918,-0.856888,1.11015,-0.92145,0.618887,1.48207,0.362124,0.860604,40.39
-1.1016,-0.856888,1.70578,-0.237412,-0.285493,1.10249,0.0813546,-0.501465,25.48
-1.1016,-0.856888,1.70578,-0.237412,-0.285493,1.10249,0.0813546,0.163731,28.63
-1.08341,-0.368701,1.71359,-2.80021,-0.0845194,1.10377,0.0813546,-0.675683,7.75
-1.08341,-0.368701,1.71359,-2.80021,-0.0845194,1.10377,0.0813546,-0.279733,24.24
-1.08341,-0.368701,1.71359,-2.80021,-0.0845194,1.10377,0.0813546,0.860604,39.23
-0.6459,0.280669,-0.464128,0.00621811,0.116454,1.19513,0.147491,-0.501465,30.39
-0.6459,0.280669,-0.464128,0.00621811,0.116454,1.19513,0.147491,0.163731,50.77
-0.644942,0.280669,-0.464128,0.00621811,0.0829584,1.1977,0.148739,-0.675683,13.18
-0.644942,0.280669,-0.464128,0.00621811,0.0829584,1.1977,0.148739,-0.279733,40.23
-0.644942,0.280669,-0.464128,0.00621811,0.0829584,1.1977,0.148739,0.860604,49.97
-0.492725,-0.856888,1.00071,0.638719,-0.0175283,0.710033,-0.199414,-0.501465,22.32
-0.492725,-0.856888,1.00071,0.638719,-0.0175283,0.710033,-0.199414,0.163731,31.35
-0.412308,-0.856888,0.623952,0.240478,0.133202,-0.296192,0.916174,-0.675683,19.93
-0.412308,-0.856888,0.623952,0.240478,0.133202,-0.296192,0.916174,-0.279733,30.23
-0.412308,-0.856888,0.623952,0.240478,0.133202,-0.296192,0.916174,0.860604,44.3
-0.298384,-0.856888,0.648965,0.273274,-0.118015,-0.206121,1.09337,-0.501465,24.92
-0.298384,-0.856888,0.648965,0.273274,-0.118015,-0.206121,1.09337,0.163731,38.33
-0.657388,-0.856888,0.722442,-1.04326,0.417914,0.448826,1.62246,-0.675683,13.54
-0.657388,-0.856888,0.722442,-1.04326,0.417914,0.448826,1.62246,-0.279733,31.64
-0.657388,-0.856888,0.722442,-1.04326,0.417914,0.448826,1.62246,0.860604,42.92
-0.656431,-0.856888,0.722442,-1.03858,0.702626,0.397357,1.62496,-0.501465,25.37
-0.656431,-0.856888,0.722442,-1.03858,0.702626,0.397357,1.62496,0.163731,44.4
-0.662175,-0.856888,1.10389,-1.05732,0.267184,1.44733,0.32344,-0.675683,19.52
-0.662175,-0.856888,1.10389,-1.05732,0.267184,1.44733,0.32344,-0.279733,38.5
-0.662175,-0.856888,1.10389,-1.05732,0.267184,1.44733,0.32344,0.860604,47.82
-0.47262,-0.856888,1.05387,-0.354542,0.0829584,1.07418,0.0613888,-0.501465,26.77
-0.47262,-0.856888,1.05387,-0.354542,0.0829584,1.07418,0.0613888,0.163731,42.7
-0.284981,-0.856888,1.00228,0.324811,-0.0677716,0.713893,-0.198167,-0.675683,17.22
-0.284981,-0.856888,1.00228,0.324811,-0.0677716,0.713893,-0.198167,-0.279733,29.65
-0.284981,-0.856888,1.00228,0.324811,-0.0677716,0.713893,-0.198167,0.860604,43.58
-0.284981,-0.856888,1.00228,0.324811,0.0327151,0.713893,-0.198167,-0.501465,24.43
-0.284981,-0.856888,1.00228,0.324811,0.0327151,0.713893,-0.198167,0.163731,36.64
-0.955122,-0.856888,1.76362,-0.56069,0.233688,1.06388,0.0526537,-0.675683,13.62
-0.955122,-0.856888,1.76362,-0.56069,0.233688,1.06388,0.0526537,-0.279733,27.77
-0.955122,-0.856888,1.76362,-0.56069,0.233688,1.06388,0.0526537,0.860604,45.37
-0.949378,-0.332754,1.06012,-0.532579,0.334175,1.11278,0.0888417,-0.501465,21.5
-0.949378,-0.332754,1.06012,-0.532579,0.334175,1.11278,0.0888417,0.163731,43.5
-1.07479,-0.367541,1.09608,-1.09012,0.769617,1.38814,0.28226,-0.675683,7.4
-1.07479,-0.367541,1.09608,-1.09012,0.769617,1.38814,0.28226,-0.279733,31.12
-1.07479,-0.367541,1.09608,-1.09012,0.769617,1.38814,0.28226,0.860604,48.15
0.0883833,-0.856888,0.656782,-0.630968,0.535148,-0.150791,1.14079,-0.501465,34.67
0.0883833,-0.856888,0.656782,-0.630968,0.535148,-0.150791,1.14079,0.163731,45.08
-0.0389435,-0.856888,0.675542,-0.982357,0.937095,0.0126237,1.27306,-0.675683,23.14
-0.0389435,-0.856888,0.675542,-0.982357,0.937095,0.0126237,1.27306,-0.279733,48.28
-0.0389435,-0.856888,0.675542,-0.982357,0.937095,0.0126237,1.27306,0.860604,55.64
0.139123,-0.856888,0.647402,-0.471671,0.45141,-0.229282,1.06841,-0.501465,35.23
0.139123,-0.856888,0.647402,-0.471671,0.45141,-0.229282,1.06841,0.163731,48.72
-0.281152,-0.856888,0.714625,-1.66171,1.03758,0.425665,1.57505,-0.675683,21.02
-0.281152,-0.856888,0.714625,-1.66171,1.03758,0.425665,1.57505,-0.279733,33.94
-0.281152,-0.856888,0.714625,-1.66171,1.03758,0.425665,1.57505,0.860604,45.37
-0.307,-0.856888,0.697428,-1.09949,1.10457,0.19148,1.44028,-0.501465,28.68
-0.307,-0.856888,0.697428,-1.09949,1.10457,0.19148,1.44028,0.163731,42.03
-0.276365,-0.856888,0.697428,-1.65234,1.33904,0.19148,1.44028,-0.675683,21.78
-0.276365,-0.856888,0.697428,-1.65234,1.33904,0.19148,1.44028,-0.279733,50.6
-0.276365,-0.856888,0.697428,-1.65234,1.33904,0.19148,1.44028,0.860604,60.95
-0.329019,-0.856888,1.10858,-1.79289,0.970591,1.46535,0.34091,-0.501465,42.22
-0.329019,-0.856888,1.10858,-1.79289,0.970591,1.46535,0.34091,0.163731,60.32
-0.0580904,-0.856888,1.05074,-1.03389,0.618887,1.03815,0.0489101,-0.675683,23.8
-0.0580904,-0.856888,1.05074,-1.03389,0.618887,1.03815,0.0489101,-0.279733,51.33
-0.0580904,-0.856888,1.05074,-1.03389,0.618887,1.03815,0.0489101,0.860604,58.61
0.153483,-0.856888,0.989771,-0.31706,0.551896,0.641836,-0.250577,-0.501465,36.99
0.153483,-0.856888,0.989771,-0.31706,0.551896,0.641836,-0.250577,0.163731,51.96
-0.6459,-0.856888,1.884,-1.2541,0.669131,1.03686,0.0351837,-0.675683,17.57
-0.6459,-0.856888,1.884,-1.2541,0.669131,1.03686,0.0351837,-0.279733,40.15
-0.6459,-0.856888,1.884,-1.2541,0.669131,1.03686,0.0351837,0.860604,50.08
-0.647814,-0.856888,1.87618,-1.26347,0.920347,1.02142,0.0239529,-0.501465,33.7
-0.647814,-0.856888,1.87618,-1.26347,0.920347,1.02142,0.0239529,0.163731,51.43
-0.0379861,0.27719,-0.464128,-0.977672,0.836609,1.14238,0.111303,-0.675683,30.45
-0.0379861,0.27719,-0.464128,-0.977672,0.836609,1.14238,0.111303,-0.279733,63.14
-0.0379861,0.27719,-0.464128,-0.977672,0.836609,1.14238,0.111303,0.860604,66.95
-0.602819,-0.223752,1.08826,-1.91002,0.953843,1.32252,0.238585,-0.501465,35.96
-0.602819,-0.223752,1.08826,-1.91002,0.953843,1.32252,0.238585,0.163731,61.99
-0.634412,-0.233029,1.05856,-1.21662,0.568644,0.532464,0.0875939,-0.675683,18.02
-0.634412,-0.233029,1.05856,-1.21662,0.568644,0.532464,0.0875939,-0.279733,52.2
-0.634412,-0.233029,1.05856,-1.21662,0.568644,0.532464,0.0875939,0.860604,56.63
-0.596118,-0.856888,1.09295,-1.08075,0.853356,1.36112,0.266038,-0.501465,26.05
-0.596118,-0.856888,1.09295,-1.08075,0.853356,1.36112,0.266038,0.163731,37.27
0.90787,-0.856888,-0.847144,1.54765,-1.03914,0.393497,-0.139517,-0.675683,16.28
0.90787,-0.856888,-0.847144,1.54765,-1.03914,0.393497,-0.139517,-0.279733,31.97
0.90787,-0.856888,-0.847144,1.54765,-1.03914,0.393497,-0.139517,0.860604,43.06
1.85564,-0.856888,0.0752221,-1.8538,-0.720935,1.60946,-1.65442,-0.279733,57.23
2.14284,-0.856888,0.0908554,0.629348,-1.03914,0.734481,-1.79169,-0.279733,64.02
2.24815,-0.856888,-0.847144,-0.916764,0.334175,-2.21214,0.354636,-0.279733,41.37
2.36303,-0.856888,-0.847144,0.160829,0.116454,-0.680925,-0.668611,-0.279733,56.83
0.994031,-0.856888,1.27899,-1.10417,2.31041,-0.89967,-0.0696368,-0.279733,55.55
1.61726,-0.277093,-0.847144,0.863608,-0.536709,1.94916,-2.00133,-0.279733,39.38
0.496212,-0.65396,1.70109,-0.682505,1.95871,0.296992,-1.51716,-0.279733,47.28
1.1855,-0.856888,-0.847144,-0.30769,-1.03914,1.89254,-0.980576,-0.279733,52.3
2.24815,-0.856888,-0.847144,-0.916764,0.350923,-2.21214,0.354636,-0.279733,41.37
-1.15999,0.627386,1.06012,0.0202737,0.0327151,-1.91619,1.31549,-0.279733,39.4
-0.298384,1.23037,0.638022,-1.05732,0.551896,-1.45297,0.329679,-0.279733,67.87
0.0366867,1.34633,-0.847144,-0.869912,0.233688,0.747348,-1.10536,-0.279733,53.58
-0.0590477,1.23037,1.02885,-0.916764,0.702626,-1.83899,-0.107073,-0.279733,76.24
-1.11213,-0.856888,1.3978,-0.832431,-1.03914,0.420518,1.58877,-0.675683,14.4
-0.987672,0.648259,1.00697,-0.0781153,-0.436223,0.442393,-0.334184,-0.675683,20.73
-1.04128,-0.699184,1.84804,-1.16039,-0.352484,0.429525,1.03347,-0.675683,21.29
-1.09298,0.0174422,1.76362,-0.823061,0.283932,0.442393,-0.0434317,-0.675683,15.52
-0.869918,-0.856888,1.11015,-0.701246,0.618887,1.36498,0.315953,-0.675683,12.55
-0.647814,-0.856888,1.87618,-1.04795,0.920347,0.909477,-0.0209701,-0.675683,15.61
-0.284981,-0.856888,1.00228,0.530959,-0.0677716,0.909477,-0.240594,-0.675683,11.98
-1.11213,0.633184,1.21802,-0.303004,0.317427,0.423092,-0.336679,-0.501465,33.09
-1.08915,0.649418,1.1633,-0.284264,0.267184,0.429525,-0.336679,-0.501465,31.81
-1.03075,-0.275934,1.86524,-0.785579,0.0494629,0.428238,0.248568,-0.501465,33.01
-1.02788,0.226168,1.65262,-0.43419,0.585392,0.441106,-0.336679,-0.501465,29.55
-0.298384,-0.856888,0.648965,0.479422,-0.15151,-0.30906,1.04346,-0.501465,24.66
-0.827795,-0.856888,0.724005,-0.532579,0.216941,0.322726,1.6,-0.501465,24.28
-1.11213,-0.856888,1.3978,-0.832431,-1.03914,0.420518,1.58877,-0.279733,26.2
-0.987672,0.648259,1.00697,-0.0781153,-0.436223,0.442393,-0.334184,-0.279733,39.16
-1.04128,-0.699184,1.84804,-1.16039,-0.352484,0.429525,1.03347,-0.279733,33.69
-1.09298,0.0174422,1.76362,-0.823061,0.283932,0.442393,-0.0434317,-0.279733,41.41
-0.869918,-0.856888,1.11015,-0.701246,0.618887,1.36498,0.315953,-0.279733,24.85
-0.647814,-0.856888,1.87618,-1.04795,0.920347,0.909477,-0.0209701,-0.279733,44.64
-0.284981,-0.856888,1.00228,0.530959,-0.0677716,0.909477,-0.240594,-0.279733,33.27
-1.11213,0.633184,1.21802,-0.303004,0.317427,0.423092,-0.336679,0.163731,53.72
-1.08915,0.649418,1.1633,-0.284264,0.267184,0.429525,-0.336679,0.163731,51.72
-1.03075,-0.275934,1.86524,-0.785579,0.0494629,0.428238,0.248568,0.163731,53.77
-1.02788,0.226168,1.65262,-0.43419,0.585392,0.441106,-0.336679,0.163731,48.99
-0.298384,-0.856888,0.648965,0.479422,-0.15151,-0.30906,1.04346,0.163731,39.64
-0.827795,-0.856888,0.724005,-0.532579,0.216941,0.322726,1.6,0.163731,43.39
-1.11213,-0.856888,1.3978,-0.832431,-1.03914,0.420518,1.58877,0.860604,37.96
-0.987672,0.648259,1.00697,-0.0781153,-0.436223,0.442393,-0.334184,0.860604,49.99
-1.04128,-0.699184,1.84804,-1.16039,-0.352484,0.429525,1.03347,0.860604,37.68
-1.09298,0.0174422,1.76362,-0.823061,0.283932,0.442393,-0.0434317,0.860604,56.81
-0.869918,-0.856888,1.11015,-0.701246,0.618887,1.36498,0.315953,0.860604,33.56
-0.647814,-0.856888,1.87618,-1.04795,0.920347,0.909477,-0.0209701,0.860604,52.96
-0.284981,-0.856888,1.00228,0.530959,-0.0677716,0.909477,-0.240594,0.860604,40.15
1.57801,-0.578587,0.387889,-0.916764,0.9036,-0.0761609,-0.76844,-0.279733,44.42
1.57801,-0.578587,0.387889,-0.916764,0.685878,-0.0761609,-0.76844,-0.279733,53.39
1.57801,-0.578587,0.387889,-0.916764,0.9036,-0.0761609,-0.76844,-0.675683,25.02
1.57801,-0.578587,0.387889,-0.916764,0.9036,-0.0761609,-0.76844,-0.612331,52.01
1.57801,-0.578587,0.387889,-0.916764,0.9036,-0.0761609,-0.76844,-0.612331,39.3
1.57801,-0.578587,0.387889,-0.916764,0.9036,-0.0761609,-0.76844,0.163731,56.14
1.57801,-0.578587,0.387889,-0.916764,0.685878,-0.0761609,-0.76844,0.163731,54.77
1.01318,-0.62497,0.622388,-1.15102,1.2888,-0.449313,0.891217,-0.279733,46.68
1.01318,-0.62497,0.622388,-1.15102,1.35579,-0.449313,0.891217,-0.675683,22.75
1.01318,-0.62497,0.622388,-1.15102,0.9036,-0.449313,0.891217,-0.675683,34.77
1.01318,-0.62497,0.622388,-1.15102,1.2888,-0.449313,0.891217,-0.612331,45.9
1.01318,-0.62497,0.622388,-1.15102,1.35579,-0.449313,0.891217,0.163731,56.34
1.01318,-0.62497,0.622388,-1.15102,0.9036,-0.449313,0.891217,0.163731,61.46
0.706828,-0.636566,0.669288,-1.71325,1.02083,-0.0761609,1.21566,-0.279733,55.45
2.00882,-0.555395,1.07575,0.91046,-0.385979,-1.94192,-0.930662,-0.279733,57.92
2.00882,-0.555395,1.07575,1.33213,-0.385979,-1.16988,-0.930662,-0.612331,33.49
2.00882,-0.555395,1.07575,0.91046,-0.385979,-1.94192,-0.930662,-0.675683,29.55
2.00882,-0.555395,1.07575,0.91046,-0.385979,-1.94192,-0.930662,0.163731,61.86
1.3674,-0.601778,1.21645,-0.167134,0.384418,-1.16988,-0.294252,-0.675683,32.01
1.3674,-0.601778,1.21645,-0.167134,0.384418,-1.94192,-0.294252,-0.612331,39.0
1.3674,-0.601778,1.21645,-0.635653,0.45141,-1.94192,-0.294252,-0.675683,32.11
1.3674,-0.601778,1.21645,-0.635653,0.45141,-1.94192,-0.294252,0.163731,74.36
-0.757909,-0.729333,1.35715,1.14472,-0.754431,-0.397844,0.342158,-0.675683,9.85
-0.757909,-0.729333,1.35715,1.14472,-0.754431,-0.397844,0.342158,0.163731,23.25
0.0271133,-0.68295,1.35715,-0.120282,-0.118015,-1.68458,0.342158,-0.675683,13.4
0.0271133,-0.68295,1.35715,-0.120282,-0.118015,-1.68458,0.342158,0.163731,44.52
0.745122,-0.636566,1.35715,-1.29158,0.786365,-0.397844,0.342158,-0.279733,59.49
0.745122,-0.636566,1.35715,-1.29158,0.786365,-0.397844,0.342158,-0.675683,23.64
0.745122,-0.636566,1.35715,-1.29158,0.786365,-0.397844,0.342158,-0.612331,38.61
0.745122,-0.636566,1.35715,-1.29158,0.786365,-0.397844,0.342158,0.163731,66.78
0.0749805,-0.856888,-0.847144,0.488793,-1.03914,-0.768423,1.51889,0.702224,32.07
1.07062,-0.856888,-0.847144,0.488793,-1.03914,-0.415858,0.149987,-0.675683,19.2
1.07062,-0.856888,-0.847144,0.488793,-1.03914,-0.415858,0.149987,-0.279733,39.6
1.90351,-0.856888,-0.847144,0.488793,-1.03914,-0.472475,-0.765944,-0.612331,34.57
1.90351,-0.856888,-0.847144,0.488793,-1.03914,-0.472475,-0.765944,-0.675683,24.4
-0.250517,-0.856888,-0.847144,0.488793,-1.03914,-1.06952,2.13908,0.702224,21.86
0.0749805,-0.856888,-0.847144,0.488793,-1.03914,-0.768423,1.51889,-0.612331,14.6
0.496212,-0.856888,-0.847144,0.488793,-1.03914,-0.536811,0.861268,-0.279733,31.97
0.0749805,-0.856888,-0.847144,0.488793,-1.03914,-0.768423,1.51889,-0.279733,25.57
1.07062,-0.856888,-0.847144,0.488793,-1.03914,-0.415858,0.149987,-0.612331,27.74
-1.17148,1.90525,-0.847144,0.193626,-1.03914,0.870875,-0.490166,-0.612331,9.62
-0.41135,0.98454,-0.847144,0.193626,-1.03914,0.870875,-0.490166,-0.612331,15.69
-0.839283,2.50824,-0.847144,0.193626,-1.03914,0.3253,-0.864525,-0.279733,32.63
-0.0801093,1.2524,-0.847144,0.193626,-1.03914,0.508016,-0.739739,-0.612331,19.77
-0.577928,0.850027,-0.847144,0.193626,-1.03914,1.05616,-0.36538,-0.279733,25.75
0.970097,-0.856888,-0.847144,0.193626,-1.03914,0.963519,-0.427773,-0.612331,24.07
-1.17148,1.90525,-0.847144,0.193626,-1.03914,0.870875,-0.490166,-0.279733,21.07
-0.24573,1.11789,-0.847144,0.193626,-1.03914,0.690732,-0.614953,-0.279733,32.05
1.10891,-0.856888,-0.847144,0.193626,-1.03914,0.870875,-0.490166,-0.612331,25.45
0.14008,-0.856888,-0.847144,0.193626,-1.03914,1.52454,-0.0534146,-0.279733,25.22
-0.577928,0.850027,-0.847144,0.193626,-1.03914,1.05616,-0.36538,-0.612331,13.09
-1.39263,1.50288,-0.847144,0.193626,-1.03914,1.32895,-0.178201,-0.612331,7.51
0.555567,-0.856888,-0.847144,0.193626,-1.03914,1.23888,-0.240594,-0.612331,21.18
-0.839283,2.50824,-0.847144,0.193626,-1.03914,0.3253,-0.864525,-0.612331,17.2
0.0864686,1.38692,-0.847144,0.193626,-1.03914,0.3253,-0.864525,-0.612331,21.86
-1.06139,0.946273,-0.847144,0.193626,-1.03914,0.690732,-0.614953,-0.279733,25.73
-0.509,3.11007,-0.847144,0.193626,-1.03914,-0.220275,-1.23888,-0.612331,21.92
0.959567,-0.856888,-0.847144,0.193626,-1.03914,1.69438,0.133765,-0.612331,14.54
-0.909169,0.582162,-0.847144,0.193626,-1.03914,1.4216,-0.115808,-0.612331,8.0
-0.412308,-0.856888,-0.847144,0.193626,-1.03914,1.8771,0.196158,-0.612331,10.34
0.970097,-0.856888,-0.847144,0.193626,-1.03914,0.963519,-0.427773,-0.279733,37.44
0.334421,1.58637,-0.847144,0.193626,-1.03914,0.0525124,-1.0517,-0.612331,24.44
-1.06139,0.946273,-0.847144,0.193626,-1.03914,0.690732,-0.614953,-0.612331,10.73
0.553653,-0.856888,-0.847144,0.723052,-1.03914,-0.0632935,0.0925853,-0.675683,13.22
0.553653,-0.856888,-0.847144,0.723052,-1.03914,-0.0632935,0.0925853,-0.501465,27.04
0.553653,-0.856888,-0.847144,0.723052,-1.03914,-0.0632935,0.0925853,0.702224,35.17
0.553653,-0.856888,-0.847144,0.723052,-1.03914,-0.0632935,0.0925853,5.05768,38.89
-0.432412,-0.856888,-0.847144,0.582497,-1.03914,-0.0632935,1.39036,-0.501465,12.84
-0.432412,-0.856888,-0.847144,0.582497,-1.03914,-0.0632935,1.39036,0.702224,21.95
-0.432412,-0.856888,-0.847144,0.535645,-1.03914,-0.0632935,1.39036,5.05768,25.08
-0.0399008,-0.856888,-0.847144,0.441941,-1.03914,-0.0632935,1.02848,-0.279733,25.97
-0.0399008,-0.856888,-0.847144,0.441941,-1.03914,-0.0632935,1.02848,0.702224,31.25
-0.0399008,-0.856888,-0.847144,0.441941,-1.03914,-0.0632935,1.02848,4.97849,33.7
-0.26009,-0.856888,-0.847144,0.769904,-1.03914,-0.0632935,1.11583,0.702224,26.94
-0.26009,-0.856888,-0.847144,0.769904,-1.03914,-0.0632935,1.11583,5.05768,29.79
0.247302,-0.856888,-0.847144,0.535645,-1.03914,-0.0632935,0.479423,5.05768,36.15
0.247302,-0.856888,-0.847144,0.535645,-1.03914,-0.0632935,0.479423,-0.279733,27.53
-0.432412,-0.856888,-0.847144,0.535645,-1.03914,-0.0632935,1.39036,-0.612331,9.99
-0.777056,-0.856888,-0.847144,-0.0734301,-1.03914,1.95688,0.891217,-0.279733,12.25
-0.53772,-0.856888,-0.847144,-0.0265782,-1.03914,1.80247,0.741474,-0.279733,17.34
0.419624,-0.856888,-0.847144,0.113977,-1.03914,1.1591,0.117543,-0.279733,30.57
-0.0590477,-0.856888,-0.847144,0.0671256,-1.03914,1.48079,0.429508,-0.279733,24.5
0.180288,-0.856888,-0.847144,0.113977,-1.03914,1.31351,0.267286,-0.279733,26.85
0.898297,-0.856888,-0.847144,0.207681,-1.03914,0.83742,-0.194423,-0.279733,38.21
1.13763,-0.856888,-0.847144,0.254533,-1.03914,0.670144,-0.356645,-0.612331,30.14
-0.298384,-0.856888,-0.847144,0.0202737,-1.03914,1.63519,0.579252,-0.279733,20.87
0.658961,-0.856888,-0.847144,0.207681,-1.03914,0.991828,-0.0446795,-0.279733,34.29
-0.296469,1.07731,-0.847144,1.02759,-1.03914,0.0602328,-0.991807,0.702224,47.71
-1.33902,1.60144,-0.847144,1.02759,-1.03914,-0.0143977,-0.31297,-0.279733,29.89
-1.51804,1.2756,-0.847144,1.02759,-1.03914,-0.189393,0.330927,0.702224,33.19
-1.71525,0.917283,-0.847144,0.488793,-1.03914,-1.10555,2.10164,-0.675683,4.57
-1.51804,1.2756,-0.847144,1.02759,-1.03914,-0.189393,0.330927,-0.279733,24.29
-0.777056,0.685366,-0.847144,0.488793,-1.03914,-0.0967486,0.407047,-0.675683,11.41
0.231028,1.50288,-0.847144,1.02759,-1.03914,-0.0967486,-1.77921,-0.612331,25.89
-1.58123,1.1492,-0.847144,0.488793,-1.03914,-0.812172,1.47646,0.702224,31.02
-1.18871,1.87974,-0.847144,0.488793,-1.03914,-0.482768,0.095081,-0.279733,33.66
-0.296469,1.07731,-0.847144,1.02759,-1.03914,0.0602328,-0.991807,-0.612331,19.35
-0.853644,2.48273,-0.847144,0.488793,-1.03914,-0.554826,-0.717277,-0.675683,12.79
-1.22701,0.325893,-0.847144,0.488793,-1.03914,-1.09268,2.11537,-0.675683,4.78
0.231028,1.50288,-0.847144,1.02759,-1.03914,-0.0967486,-1.77921,-0.279733,43.38
-1.03554,0.488235,-0.847144,0.488793,-1.03914,-0.336081,1.03846,-0.675683,6.94
-0.432412,0.963667,-0.847144,0.488793,-1.03914,-0.0041038,-0.305483,-0.675683,13.57
-1.09489,2.0444,-0.847144,1.02759,-1.03914,0.0344982,-1.01052,-0.612331,15.75
0.0654071,1.36952,-0.847144,0.488793,-1.03914,-0.526517,-0.696064,-0.279733,38.8
-1.71525,0.917283,-0.847144,0.488793,-1.03914,-1.10555,2.10164,-0.279733,17.28
-0.931188,0.564768,-0.847144,1.02759,-1.03914,-0.176526,0.329679,-0.279733,24.05
-0.853644,2.48273,-0.847144,0.488793,-1.03914,-0.554826,-0.717277,0.702224,50.73
0.231028,1.50288,-0.847144,1.02759,-1.03914,-0.0967486,-1.77921,-0.675683,14.14
-1.65494,1.02628,-0.847144,1.02759,-1.03914,-0.44674,0.941132,-0.675683,2.33
0.0654071,1.36952,-0.847144,0.488793,-1.03914,-0.526517,-0.696064,-0.612331,23.52
-0.662175,0.781611,-0.847144,1.02759,-1.03914,0.00619006,-0.294252,0.702224,39.7
-0.432412,0.963667,-0.847144,0.488793,-1.03914,-0.0041038,-0.305483,-0.279733,32.88
-0.931188,0.564768,-0.847144,1.02759,-1.03914,-0.176526,0.329679,-0.612331,10.79
-0.743549,2.68334,-0.847144,1.02759,-1.03914,-0.122483,-1.79169,-0.279733,41.68
-1.41848,1.46229,-0.847144,0.488793,-1.03914,-0.585707,0.818841,-0.675683,6.88
-0.777056,0.685366,-0.847144,0.488793,-1.03914,-0.0967486,0.407047,-0.612331,17.17
-0.296469,1.07731,-0.847144,1.02759,-1.03914,0.0602328,-0.991807,-0.675683,9.73
-1.22701,0.325893,-0.847144,0.488793,-1.03914,-1.09268,2.11537,0.702224,26.32
-1.58123,1.1492,-0.847144,0.488793,-1.03914,-0.812172,1.47646,-0.675683,6.28
-0.296469,1.07731,-0.847144,1.02759,-1.03914,0.0602328,-0.991807,-0.279733,36.96
-0.853644,2.48273,-0.847144,0.488793,-1.03914,-0.554826,-0.717277,-0.612331,21.48
-1.22701,0.325893,-0.847144,0.488793,-1.03914,-1.09268,2.11537,-0.612331,8.37
-1.58123,1.1492,-0.847144,0.488793,-1.03914,-0.812172,1.47646,-0.612331,10.09
-1.51804,1.2756,-0.847144,1.02759,-1.03914,-0.189393,0.330927,-0.612331,10.35
-0.743549,2.68334,-0.847144,1.02759,-1.03914,-0.122483,-1.79169,0.702224,51.86
0.276023,-0.856888,-0.847144,0.488793,-1.03914,0.502869,0.704038,-0.612331,17.24
0.276023,-0.856888,-0.847144,0.488793,-1.03914,0.502869,0.704038,0.702224,35.76
0.477065,-0.856888,-0.847144,0.488793,-1.03914,0.670144,0.59173,-0.675683,14.31
0.477065,-0.856888,-0.847144,0.488793,-1.03914,0.670144,0.59173,-0.279733,31.74
0.477065,-0.856888,-0.847144,0.488793,-1.03914,0.670144,0.59173,1.17736,39.38
0.649387,-0.856888,-0.847144,0.488793,-1.03914,1.06903,0.441987,-0.612331,9.01
0.649387,-0.856888,-0.847144,0.488793,-1.03914,1.06903,0.441987,0.702224,40.66
-0.413265,-0.856888,-0.847144,0.207681,-1.03914,1.87967,0.192414,-0.612331,12.05
0.141995,-0.856888,-0.847144,0.207681,-1.03914,1.50652,-0.0571581,-0.612331,18.91
0.151568,-0.856888,-0.847144,0.207681,-1.03914,0.863154,-0.49391,-0.612331,30.96
1.90351,-0.856888,-0.847144,0.488793,-1.03914,-0.475048,-0.656132,0.702224,54.28
-0.00160704,-0.856888,-0.847144,0.207681,-1.03914,1.68666,0.00523496,-0.612331,14.5
2.09498,-0.856888,-0.847144,0.863608,-1.03914,1.95688,-2.00382,-0.707359,12.64
2.09498,-0.856888,-0.847144,0.863608,-1.03914,1.95688,-2.00382,-0.612331,33.21
2.09498,-0.856888,-0.847144,0.863608,-1.03914,1.95688,-2.00382,-0.279733,44.09
2.47791,-0.856888,-0.847144,-0.401393,-1.03914,1.95688,-2.00382,-0.501465,59.76
2.47791,-0.856888,-0.847144,-0.401393,-1.03914,1.95688,-2.00382,0.702224,69.66
2.47791,-0.856888,-0.847144,-0.401393,-1.03914,1.95688,-2.00382,3.55307,74.17
0.658961,-0.856888,-0.847144,1.00416,-1.03914,0.0139105,0.0177136,-0.501465,22.53
0.658961,-0.856888,-0.847144,1.00416,-1.03914,0.0139105,0.0177136,0.163731,29.98
0.658961,-0.856888,-0.847144,1.00416,-1.03914,0.0139105,0.0177136,2.12764,32.72
0.994031,-0.856888,-0.847144,0.207681,-1.03914,-0.0890282,-0.13203,-0.675683,14.7
0.994031,-0.856888,-0.847144,0.207681,-1.03914,-0.0890282,-0.13203,-0.501465,27.92
0.477065,-0.856888,-0.847144,0.488793,-1.03914,0.0653798,0.641645,2.12764,39.0
0.649387,-0.856888,-0.847144,0.488793,-1.03914,0.953226,0.404551,-0.675683,14.99
0.965311,-0.856888,-0.847144,0.207681,-1.03914,0.953226,-0.431517,-0.612331,24.0
0.965311,-0.856888,-0.847144,0.207681,-1.03914,1.77673,0.130021,-0.612331,11.47
0.553653,-0.856888,-0.847144,0.160829,-1.03914,1.23631,-0.244337,-0.612331,21.16
0.132421,-0.856888,-0.847144,0.160829,-1.03914,1.23631,-0.0571581,-0.612331,14.8
-0.413265,-0.856888,-0.847144,0.160829,-1.03914,1.86681,0.192414,-0.279733,17.54
0.141995,-0.856888,-0.847144,0.488793,-1.03914,1.44218,-0.107073,-0.279733,21.65
0.477065,-0.856888,-0.847144,0.488793,-1.03914,-1.20849,0.641645,-0.675683,13.52
0.477065,-0.856888,-0.847144,0.488793,-1.03914,0.0653798,0.641645,-0.279733,31.45
0.649387,-0.856888,-0.847144,0.488793,-1.03914,0.953226,0.404551,-0.612331,18.13
0.649387,-0.856888,-0.847144,0.488793,-1.03914,0.953226,0.404551,0.702224,39.49
0.649387,-0.856888,-0.847144,0.488793,-1.03914,0.953226,0.404551,4.97849,42.13
0.199435,-0.856888,-0.847144,1.00416,-1.03914,0.0139105,0.541816,2.12764,26.74
2.09498,-0.856888,-0.847144,0.863608,-1.03914,1.95688,-2.00382,0.702224,47.22
2.09498,-0.856888,-0.847144,0.863608,-1.03914,1.95688,-2.00382,3.55307,55.16
-0.279237,-0.856888,-0.847144,0.160829,-1.03914,1.77673,0.130021,-0.612331,13.71
0.553653,-0.856888,-0.847144,0.160829,-1.03914,1.1205,-0.244337,-0.279733,31.65
1.07062,-0.856888,-0.847144,0.488793,-1.03914,-0.423579,-0.194423,-0.279733,39.58
0.965311,-0.856888,-0.847144,0.160829,-1.03914,0.953226,-0.431517,-0.612331,24.0
-0.279237,-0.856888,-0.847144,0.207681,-1.03914,1.77673,0.130021,-0.612331,11.47
0.276023,-0.856888,-0.847144,0.488793,-1.03914,-0.0375589,0.95361,-0.612331,14.99
0.276023,-0.856888,-0.847144,0.488793,-1.03914,-0.0375589,0.95361,0.702224,34.68
0.276023,-0.856888,-0.847144,0.488793,-1.03914,-0.0375589,0.95361,4.97849,38.11
2.33431,-0.856888,-0.847144,0.348237,-1.03914,1.95688,-2.00382,-0.612331,42.42
2.33431,-0.856888,-0.847144,0.348237,-1.03914,1.95688,-2.00382,-0.279733,55.94
2.33431,-0.856888,-0.847144,0.348237,-1.03914,1.95688,-2.00382,3.55307,67.11
0.390904,-0.856888,-0.847144,1.00416,-1.03914,0.0139105,0.329679,-0.279733,25.18
0.199435,-0.856888,-0.847144,1.00416,-1.03914,0.0139105,0.541816,-0.279733,21.75
1.90351,-0.856888,-0.847144,0.488793,-1.03914,-0.475048,-0.656132,-0.675683,24.39
2.30559,-0.856888,-0.847144,-1.66639,-1.03914,-0.989741,1.52763,-0.279733,74.99
-1.14085,1.34633,1.46659,-0.120282,2.14294,-1.73605,-0.40656,-0.279733,33.76
-1.28445,0.47664,0.544222,0.957312,0.468157,-1.45297,0.691559,-0.279733,19.99
0.276023,0.801324,0.888155,-0.635653,2.64537,-0.758129,-1.52964,-0.279733,33.69
0.218582,0.766537,-0.847144,1.51953,-0.034276,-1.00261,-0.643653,-0.279733,33.42
-1.16957,0.8709,0.966321,-0.30769,1.47302,-0.256303,-0.668611,-0.279733,27.68
0.276023,0.801324,-0.847144,-0.635653,0.635635,-0.758129,0.379594,-0.279733,45.3
-1.24615,-0.856888,2.02939,-0.682505,0.970591,0.232655,-0.0197223,-0.279733,15.57
0.161142,0.731749,0.825622,0.91046,-0.034276,-1.22135,-1.47972,-0.279733,53.52
0.812136,1.31154,-0.847144,0.441941,0.133202,-1.91619,-0.206902,-0.279733,65.91
-0.279237,0.267913,0.340989,0.582497,0.30068,-1.77465,0.59173,-0.279733,33.4
-1.19829,1.96091,-0.847144,-0.0734301,0.803113,0.631542,-0.94314,-0.279733,37.36
0.161142,-0.856888,0.825622,0.207681,-0.034276,-1.20849,0.516858,-0.279733,42.64
0.0558336,0.546215,0.622388,0.301385,0.468157,-0.886803,-0.968098,-0.279733,41.94
0.716401,-0.856888,1.37279,0.535645,0.803113,-2.21214,0.0551495,-0.279733,40.87
0.390904,0.8709,-0.847144,0.207681,0.30068,-0.282038,-0.805875,-0.279733,52.42
0.314317,-0.856888,0.919421,-0.541949,0.635635,-0.616589,0.117543,-0.279733,38.46
-1.35146,1.04484,1.15392,2.59713,-0.034276,-1.33716,-1.46724,-0.279733,35.23
0.161142,-0.856888,0.825622,1.33213,0.803113,-1.19562,-0.369124,-0.279733,31.87
-1.15999,2.04208,-0.847144,-0.635653,0.970591,0.97896,-1.06793,-0.279733,39.45
-0.0494743,0.488235,0.559855,-0.0734301,0.468157,-1.32429,-0.0696368,-0.279733,44.28
-1.2653,0.754941,0.856888,0.535645,-0.034276,-1.04121,0.0801067,-0.279733,23.69
-0.193076,0.302701,0.372255,0.91046,0.468157,-1.4015,-0.156987,-0.279733,32.4
0.304743,-0.856888,0.919421,-0.167134,0.30068,0.374196,-1.05545,-0.279733,36.8
-1.29402,1.81017,-0.847144,0.957312,-0.536709,-1.87759,1.22814,-0.279733,33.06
-1.41848,1.57825,-0.847144,0.6762,-0.536709,-0.307773,0.267286,-0.279733,31.03
-1.23658,-0.856888,0.903788,0.113977,0.30068,0.245522,0.529337,-0.279733,12.18
-1.35146,0.685366,0.763088,0.863608,0.133202,-0.732395,-0.256816,-0.279733,36.44
0.180288,-0.856888,1.02885,1.42583,0.635635,-1.22135,-0.568782,-0.279733,23.84
-1.27488,-0.856888,1.29462,-1.10417,1.6405,0.374196,0.704038,-0.279733,17.95
-1.22701,0.824516,-0.847144,-0.167134,0.30068,0.348461,0.604209,-0.279733,19.01
-1.17914,-0.856888,2.20135,1.80065,0.803113,-0.964007,-0.755961,-0.279733,8.54
-0.0781946,-0.856888,0.559855,0.816756,0.803113,-0.539385,-0.144509,-0.279733,32.24
-1.32274,1.10282,1.38842,0.441941,0.30068,-0.0761609,-1.62946,-0.279733,29.72
0.304743,1.01005,-0.847144,-0.167134,0.635635,-0.719527,-0.181944,-0.279733,52.44
0.524932,-0.856888,-0.847144,0.0202737,-0.536709,0.168318,0.541816,-0.279733,44.86
-1.25573,1.89134,-0.847144,-0.354542,0.970591,1.23631,-1.23015,-0.279733,37.43
0.477065,1.11441,-0.847144,0.629348,0.30068,-2.08346,0.354636,-0.279733,56.61
-1.20786,1.26516,-0.847144,0.535645,0.468157,-1.23422,1.17823,-0.279733,23.79
-0.145209,0.441852,0.512955,-0.167134,0.635635,-0.809599,-0.356645,-0.279733,39.42
0.304743,0.824516,-0.847144,-2.55658,0.30068,0.348461,0.604209,-0.279733,44.52
-1.31317,0.720153,0.809988,-0.167134,0.133202,-0.410711,0.00523496,-0.279733,26.14
-0.0399008,0.499831,0.575488,0.441941,0.133202,-0.346375,-1.34246,-0.279733,43.57
0.304743,0.824516,-0.847144,-0.167134,0.30068,0.374196,-1.05545,-0.279733,41.05
0.0749805,0.696961,-0.847144,0.629348,-0.034276,-0.629456,-0.169466,-0.279733,46.24
-1.3036,-0.856888,1.95122,0.957312,0.30068,-1.91619,1.1907,-0.279733,10.54
-1.38976,1.02165,1.12265,-0.448245,0.635635,-0.642323,-0.119551,-0.279733,29.07
-0.250517,0.291105,0.356622,0.348237,-0.034276,-0.693793,-0.306731,-0.279733,33.8
-1.38976,1.41591,0.684922,0.816756,-0.034276,-1.62024,0.117543,-0.279733,26.97
-1.14085,1.62463,1.71672,0.957312,0.635635,-1.96766,-1.16776,-0.279733,30.65
-1.2653,0.917283,2.18572,0.488793,0.30068,-0.487915,-1.87904,-0.279733,24.58
-1.16957,1.56665,1.66982,0.91046,0.133202,-1.60737,-1.30502,-0.279733,30.88
-1.21743,1.1608,2.04502,2.17546,0.133202,-1.64598,-2.0163,-0.279733,24.34
-0.930231,0.140359,2.12319,1.47268,-0.034276,-0.642323,-1.87904,-0.279733,22.93
-0.423796,0.206455,0.270639,3.06096,-0.034276,-1.54432,-0.975585,-0.279733,28.63
-1.20978,1.2698,-0.847144,0.5497,0.484905,0.958372,-0.959363,-0.279733,18.29
0.141995,-0.856888,0.820932,1.86624,0.719374,-1.97795,0.0601409,-0.279733,31.42
0.307615,0.824516,-0.847144,-0.143708,0.30068,-1.36032,0.629166,-0.279733,40.93
-1.22605,0.824516,0.919421,-0.143708,0.30068,0.372909,-1.05919,-0.279733,25.56
-1.26051,1.87974,-0.847144,-0.270208,1.07108,-1.62281,1.48645,-0.279733,32.96
-1.22605,0.824516,0.919421,-0.143708,0.30068,-1.36032,0.629166,-0.279733,26.23
0.433985,-0.856888,1.30869,0.816756,0.769617,-2.21085,0.236089,-0.279733,38.63
-0.18446,0.424458,0.498885,0.648089,-0.201754,-1.00004,-0.51138,-0.279733,33.72
-1.24903,-0.856888,2.04971,-0.69656,1.57351,1.30708,-1.19271,-0.279733,13.46
-1.2653,0.506789,0.586432,0.0624404,0.14995,-0.251157,0.0838503,-0.279733,23.52
-0.203607,0.309659,0.378509,-0.513838,0.702626,-0.478908,-0.133278,-0.279733,49.77
0.0271133,0.53114,-0.847144,-0.621597,0.166697,-0.0324119,0.257303,-0.279733,40.93
-1.30551,-0.856888,1.24147,-0.0359486,0.819861,0.0846808,0.473183,-0.279733,13.2
-1.31604,1.11673,1.22583,0.470052,0.384418,-2.04358,0.395816,-0.279733,29.87
-1.20978,-0.856888,1.38529,0.5497,0.484905,0.958372,-0.959363,-0.279733,12.46
-1.4022,-0.856888,1.7433,-0.0640597,0.635635,-0.153365,0.390824,-0.279733,13.29
0.314317,0.827995,0.922548,-0.124967,0.30068,-1.33587,-1.04047,-0.279733,46.23
-1.29689,1.14456,-0.847144,0.0155885,-0.469718,0.165745,0.53932,-0.279733,23.74
-1.27392,-0.856888,1.99968,-0.00783746,1.47302,-1.72447,1.38163,-0.279733,15.53
0.162099,-0.856888,0.833438,-0.841801,1.10457,-0.25373,0.130021,-0.279733,35.87
-1.20595,1.2756,1.39155,0.573126,0.501653,-1.20077,-0.936901,-0.279733,28.99
-1.27679,1.17355,-0.847144,-0.485727,-0.670692,0.348461,0.68532,-0.279733,26.92
0.301871,-0.856888,-0.847144,-0.162449,0.30068,0.344601,0.606705,-0.279733,25.1
-1.20978,-0.856888,1.38529,0.5497,0.484905,-1.23165,1.17448,-0.279733,9.74
-0.0801093,0.36184,0.431662,1.31807,0.468157,-0.886803,-1.1715,-0.279733,37.17
-1.22126,0.81524,0.908478,1.80533,0.652383,-0.63975,-1.44353,-0.279733,16.5
-1.2385,1.20834,1.3212,-0.659079,2.0257,-0.372109,-0.985568,-0.279733,36.35
-1.317,-0.856888,1.88712,-1.08543,1.95871,-0.388837,0.884978,-0.279733,15.42
0.891595,-0.856888,-0.847144,0.404459,0.0829584,0.51831,-0.538833,-0.279733,39.06
-1.23084,1.91105,-0.847144,0.863608,0.0159673,0.371622,-1.11909,-0.279733,26.86
0.226241,-0.856888,0.709935,0.6762,0.60214,-0.173953,-0.853294,-0.279733,30.12
-1.33327,1.07499,1.1805,-0.377967,0.786365,-1.16216,0.146243,-0.279733,44.61
0.384203,1.04716,-0.847144,0.418515,-0.268745,-1.32429,0.00523496,-0.279733,57.22
-0.0130952,0.637822,0.722442,-0.429505,0.551896,-1.90203,0.390824,-0.279733,52.83
-1.11596,-0.856888,1.50411,0.00153292,0.920347,0.64827,-0.557551,-0.279733,18.03
-1.15808,1.32314,1.44157,1.01353,0.853356,-1.85571,-0.79714,-0.279733,35.31
0.351653,-0.856888,1.13047,1.31807,-0.0845194,-1.44653,-0.461466,-0.279733,40.06
0.425369,1.07267,-0.847144,-0.354542,0.45141,-1.17503,0.204893,-0.279733,61.24
-1.42805,1.53766,1.66826,-0.124967,-0.118015,-1.36418,-0.473944,-0.279733,33.31
-1.11979,-0.856888,2.28108,-0.0172078,1.07108,-1.59065,0.903696,-0.279733,15.09
0.38516,-0.856888,1.15236,0.0436996,0.886852,-1.32301,0.0763631,-0.279733,37.27
0.0692364,0.546215,-0.847144,-0.195245,0.133202,-0.83662,0.697799,-0.279733,42.14
-0.159569,0.430256,0.505138,0.652774,-0.0510238,-1.80553,0.209884,-0.279733,41.54
-1.10255,2.15456,-0.847144,0.076496,1.08783,-1.46841,0.664106,-0.279733,37.92
0.392819,-0.856888,0.960068,0.6762,0.702626,-1.99468,0.496893,-0.279733,31.18
-1.16861,1.30806,-0.847144,-0.279579,0.853356,0.214641,0.191166,-0.279733,32.77
-0.194033,0.308499,0.376945,0.891719,0.401166,-1.39506,-0.150748,-0.279733,32.4